Username,ID,ExperimentName,Session,Trial,Date,TimeDif,"Condition Number","Stimuli File","Order File","Condition Description","Condition Notes",Stimuli*Cue,Stimuli*Answer,Stimuli*Shuffle,"Stimuli*Stimuli Notes",Stimuli*Value,Procedure*Item,"Procedure*Trial Type","Procedure*Max Time","Procedure*Min Time",Procedure*Text,"Procedure*Procedure Notes",Procedure*Shuffle,Procedure*,Response*RT,Response*Response,Response*Accuracy,Response*RTfirst,Response*RTlast,Response*strictAcc,Response*lenientAcc,Response*focus,Response*JOL,Response*Focus
5dcf0f73af16d3067b87757f,ibj4lzgu97,"Mediated Recog Prolific",1,1,2023-05-10T00:15:02+00:00,16.487508058548,6,versionC_stim.csv,JOLVersion_Recog.csv,"JOL Recog",JOL3,,,,,,0,Instruct,-,5,"In this section, you will be presented with a series of word pairs. Please study each word pair! Your memory will be tested!",Initial_Instruct,Instruct1,,15900,,,-1,-1,,,,,1
5dcf0f73af16d3067b87757f,ibj4lzgu97,"Mediated Recog Prolific",1,2,2023-05-10T00:15:29+00:00,26.649398088455,6,versionC_stim.csv,JOLVersion_Recog.csv,"JOL Recog",JOL3,,,,,,0,Instruct,-,10,"As you study, you will be asked to rate your ability to remember the second item in the pair on a later test. You will make these ratings using a 0 to 100 Scale.",,Instruct13,,26006,,,-1,-1,,,,,1
5dcf0f73af16d3067b87757f,ibj4lzgu97,"Mediated Recog Prolific",1,3,2023-05-10T00:15:42+00:00,12.769284963608,6,versionC_stim.csv,JOLVersion_Recog.csv,"JOL Recog",JOL3,,,,,,0,Instruct,-,10,"For example, if you are given the pair CAT - DOG, a rating of 0 indicates that you would not remember DOG at test, while a rating of 100 indicates full certainty that you would remember the word DOG at test.",,Instruct14,,12124,,,-1,-1,,,,,1
5dcf0f73af16d3067b87757f,ibj4lzgu97,"Mediated Recog Prolific",1,4,2023-05-10T00:15:54+00:00,12.416402101517,6,versionC_stim.csv,JOLVersion_Recog.csv,"JOL Recog",JOL3,,,,,,0,Instruct,-,10,"When making your ratings, it is criticial that you use the full range of the scale. You will be disqualified for only giving ratings of 0 or 100! After making your rating, press Enter to advance to the next pair.",,Instruct15,,11789,,,-1,-1,,,,,1
5dcf0f73af16d3067b87757f,ibj4lzgu97,"Mediated Recog Prolific",1,5,2023-05-10T00:15:57+00:00,2.7816128730774,6,versionC_stim.csv,JOLVersion_Recog.csv,"JOL Recog",JOL3,,,,,,0,Instruct,User,-,"You will now begin the study. Press Enter when you are ready to begin.",,Instruct16,,2226,,,-1,-1,,,,,1
5dcf0f73af16d3067b87757f,ibj4lzgu97,"Mediated Recog Prolific",1,6,2023-05-10T00:16:05+00:00,8.3808770179749,6,versionC_stim.csv,JOLVersion_Recog.csv,"JOL Recog",JOL3,PITCHER,CATCHER,BUFFER1,Buffer,2,3,JOL,User,-,"How likely are you to correctly recall the second item in the pair?|Type your response on a scale from 0-100 and then press Enter.",Study/JOL,BUFFER,,7713,,,6577,6773,,,,90,1
5dcf0f73af16d3067b87757f,ibj4lzgu97,"Mediated Recog Prolific",1,7,2023-05-10T00:16:14+00:00,8.4843780994415,6,versionC_stim.csv,JOLVersion_Recog.csv,"JOL Recog",JOL3,PEANUT,BUTTER,BUFFER1,Buffer,3,4,JOL,User,-,"How likely are you to correctly recall the second item in the pair?|Type your response on a scale from 0-100 and then press Enter.",Study/JOL,BUFFER,,7879,,,5613,5826,,,,90,1
5dcf0f73af16d3067b87757f,ibj4lzgu97,"Mediated Recog Prolific",1,8,2023-05-10T00:16:23+00:00,9.3331189155579,6,versionC_stim.csv,JOLVersion_Recog.csv,"JOL Recog",JOL3,SPACE,JAM,BUFFER1,Buffer,5,6,JOL,User,-,"How likely are you to correctly recall the second item in the pair?|Type your response on a scale from 0-100 and then press Enter.",Study/JOL,BUFFER,,8558,,,5965,7610,,,,96,1
5dcf0f73af16d3067b87757f,ibj4lzgu97,"Mediated Recog Prolific",1,9,2023-05-10T00:16:31+00:00,8.031457901001,6,versionC_stim.csv,JOLVersion_Recog.csv,"JOL Recog",JOL3,TREES,GREEN,BUFFER1,Buffer,1,2,JOL,User,-,"How likely are you to correctly recall the second item in the pair?|Type your response on a scale from 0-100 and then press Enter.",Study/JOL,BUFFER,,7378,,,5151,6501,,,,95,1
5dcf0f73af16d3067b87757f,ibj4lzgu97,"Mediated Recog Prolific",1,10,2023-05-10T00:16:39+00:00,7.9604971408844,6,versionC_stim.csv,JOLVersion_Recog.csv,"JOL Recog",JOL3,SCARE,FRIGHT,BUFFER1,Buffer,4,5,JOL,User,-,"How likely are you to correctly recall the second item in the pair?|Type your response on a scale from 0-100 and then press Enter.",Study/JOL,BUFFER,,6814,,,3636,5622,,,,75,1
5dcf0f73af16d3067b87757f,ibj4lzgu97,"Mediated Recog Prolific",1,11,2023-05-10T00:16:44+00:00,5.53968501091,6,versionC_stim.csv,JOLVersion_Recog.csv,"JOL Recog",JOL3,KEYS,ROD,Study1,U,30,13,JOL,User,-,"How likely are you to correctly recall the second item in the pair?|Type your response on a scale from 0-100 and then press Enter.",Study/JOL,"Study Phase",,4862,,,3965,4180,,,,90,1
5dcf0f73af16d3067b87757f,ibj4lzgu97,"Mediated Recog Prolific",1,12,2023-05-10T00:16:51+00:00,6.4326748847961,6,versionC_stim.csv,JOLVersion_Recog.csv,"JOL Recog",JOL3,SIP,DRINK,Study1,F,17,31,JOL,User,-,"How likely are you to correctly recall the second item in the pair?|Type your response on a scale from 0-100 and then press Enter.",Study/JOL,"Study Phase",,5743,,,4728,4987,,,,80,1
5dcf0f73af16d3067b87757f,ibj4lzgu97,"Mediated Recog Prolific",1,13,2023-05-10T00:16:57+00:00,5.8368439674377,6,versionC_stim.csv,JOLVersion_Recog.csv,"JOL Recog",JOL3,HYGIENE,CLEAN,Study1,F,13,25,JOL,User,-,"How likely are you to correctly recall the second item in the pair?|Type your response on a scale from 0-100 and then press Enter.",Study/JOL,"Study Phase",,5183,,,3682,4520,,,,85,1
5dcf0f73af16d3067b87757f,ibj4lzgu97,"Mediated Recog Prolific",1,14,2023-05-10T00:17:05+00:00,8.2700040340424,6,versionC_stim.csv,JOLVersion_Recog.csv,"JOL Recog",JOL3,MEAT,KEYS,Study1,U,26,30,JOL,User,-,"How likely are you to correctly recall the second item in the pair?|Type your response on a scale from 0-100 and then press Enter.",Study/JOL,"Study Phase",,7446,,,5008,6798,,,,50,1
5dcf0f73af16d3067b87757f,ibj4lzgu97,"Mediated Recog Prolific",1,15,2023-05-10T00:17:12+00:00,7.3985500335693,6,versionC_stim.csv,JOLVersion_Recog.csv,"JOL Recog",JOL3,SIGN,TICK,Study1,U,32,34,JOL,User,-,"How likely are you to correctly recall the second item in the pair?|Type your response on a scale from 0-100 and then press Enter.",Study/JOL,"Study Phase",,6727,,,3150,6478,,,,95,1
5dcf0f73af16d3067b87757f,ibj4lzgu97,"Mediated Recog Prolific",1,16,2023-05-10T00:17:17+00:00,4.9460859298706,6,versionC_stim.csv,JOLVersion_Recog.csv,"JOL Recog",JOL3,SOON,BELT,Study1,U,31,8,JOL,User,-,"How likely are you to correctly recall the second item in the pair?|Type your response on a scale from 0-100 and then press Enter.",Study/JOL,"Study Phase",,4500,,,3534,4260,,,,80,1
5dcf0f73af16d3067b87757f,ibj4lzgu97,"Mediated Recog Prolific",1,17,2023-05-10T00:17:21+00:00,3.4217751026154,6,versionC_stim.csv,JOLVersion_Recog.csv,"JOL Recog",JOL3,NAP,SLEEP,Study1,F,14,15,JOL,User,-,"How likely are you to correctly recall the second item in the pair?|Type your response on a scale from 0-100 and then press Enter.",Study/JOL,"Study Phase",,2550,,,1967,2253,,,,90,1
5dcf0f73af16d3067b87757f,ibj4lzgu97,"Mediated Recog Prolific",1,18,2023-05-10T00:17:27+00:00,6.642040014267,6,versionC_stim.csv,JOLVersion_Recog.csv,"JOL Recog",JOL3,CREDIT,CARD,Study1,F,18,24,JOL,User,-,"How likely are you to correctly recall the second item in the pair?|Type your response on a scale from 0-100 and then press Enter.",Study/JOL,"Study Phase",,5867,,,2700,2951,,,,95,1
5dcf0f73af16d3067b87757f,ibj4lzgu97,"Mediated Recog Prolific",1,19,2023-05-10T00:17:31+00:00,3.1097309589386,6,versionC_stim.csv,JOLVersion_Recog.csv,"JOL Recog",JOL3,ORCHID,FLOWER,Study1,F,19,28,JOL,User,-,"How likely are you to correctly recall the second item in the pair?|Type your response on a scale from 0-100 and then press Enter.",Study/JOL,"Study Phase",,2612,,,1931,2123,,,,90,1
5dcf0f73af16d3067b87757f,ibj4lzgu97,"Mediated Recog Prolific",1,20,2023-05-10T00:17:34+00:00,3.8523490428925,6,versionC_stim.csv,JOLVersion_Recog.csv,"JOL Recog",JOL3,VEHICLE,CHARM,Study1,U,25,36,JOL,User,-,"How likely are you to correctly recall the second item in the pair?|Type your response on a scale from 0-100 and then press Enter.",Study/JOL,"Study Phase",,3376,,,2375,2654,,,,95,1
5dcf0f73af16d3067b87757f,ibj4lzgu97,"Mediated Recog Prolific",1,21,2023-05-10T00:17:37+00:00,2.7871689796448,6,versionC_stim.csv,JOLVersion_Recog.csv,"JOL Recog",JOL3,TEMPERATURE,MORNING,Study1,U,33,11,JOL,User,-,"How likely are you to correctly recall the second item in the pair?|Type your response on a scale from 0-100 and then press Enter.",Study/JOL,"Study Phase",,2238,,,1779,1964,,,,80,1
5dcf0f73af16d3067b87757f,ibj4lzgu97,"Mediated Recog Prolific",1,22,2023-05-10T00:17:40+00:00,2.8320789337158,6,versionC_stim.csv,JOLVersion_Recog.csv,"JOL Recog",JOL3,TUNA,FISH,Study1,F,20,16,JOL,User,-,"How likely are you to correctly recall the second item in the pair?|Type your response on a scale from 0-100 and then press Enter.",Study/JOL,"Study Phase",,2393,,,1817,2137,,,,95,1
5dcf0f73af16d3067b87757f,ibj4lzgu97,"Mediated Recog Prolific",1,23,2023-05-10T00:17:42+00:00,2.230437040329,6,versionC_stim.csv,JOLVersion_Recog.csv,"JOL Recog",JOL3,HORSE,COW,Study1,F,9,23,JOL,User,-,"How likely are you to correctly recall the second item in the pair?|Type your response on a scale from 0-100 and then press Enter.",Study/JOL,"Study Phase",,1779,,,1282,1512,,,,95,1
5dcf0f73af16d3067b87757f,ibj4lzgu97,"Mediated Recog Prolific",1,24,2023-05-10T00:17:45+00:00,3.1357231140137,6,versionC_stim.csv,JOLVersion_Recog.csv,"JOL Recog",JOL3,WORD,SENTENCE,Study1,F,12,26,JOL,User,-,"How likely are you to correctly recall the second item in the pair?|Type your response on a scale from 0-100 and then press Enter.",Study/JOL,"Study Phase",,2645,,,2155,2380,,,,85,1
5dcf0f73af16d3067b87757f,ibj4lzgu97,"Mediated Recog Prolific",1,25,2023-05-10T00:17:49+00:00,3.2348849773407,6,versionC_stim.csv,JOLVersion_Recog.csv,"JOL Recog",JOL3,LISTEN,FICTION,Study1,U,29,20,JOL,User,-,"How likely are you to correctly recall the second item in the pair?|Type your response on a scale from 0-100 and then press Enter.",Study/JOL,"Study Phase",,2752,,,2176,2527,,,,90,1
5dcf0f73af16d3067b87757f,ibj4lzgu97,"Mediated Recog Prolific",1,26,2023-05-10T00:17:52+00:00,3.3799188137054,6,versionC_stim.csv,JOLVersion_Recog.csv,"JOL Recog",JOL3,CRACKLE,ELECTION,Study1,U,24,22,JOL,User,-,"How likely are you to correctly recall the second item in the pair?|Type your response on a scale from 0-100 and then press Enter.",Study/JOL,"Study Phase",,2911,,,1920,2618,,,,99,1
5dcf0f73af16d3067b87757f,ibj4lzgu97,"Mediated Recog Prolific",1,27,2023-05-10T00:17:54+00:00,2.1384751796722,6,versionC_stim.csv,JOLVersion_Recog.csv,"JOL Recog",JOL3,ROOT,PLANT,Study1,F,10,14,JOL,User,-,"How likely are you to correctly recall the second item in the pair?|Type your response on a scale from 0-100 and then press Enter.",Study/JOL,"Study Phase",,1653,,,1218,1387,,,,99,1
5dcf0f73af16d3067b87757f,ibj4lzgu97,"Mediated Recog Prolific",1,28,2023-05-10T00:17:58+00:00,3.5757420063019,6,versionC_stim.csv,JOLVersion_Recog.csv,"JOL Recog",JOL3,SCALP,HEAD,Study1,F,8,27,JOL,User,-,"How likely are you to correctly recall the second item in the pair?|Type your response on a scale from 0-100 and then press Enter.",Study/JOL,"Study Phase",,3079,,,2504,2734,,,,80,1
5dcf0f73af16d3067b87757f,ibj4lzgu97,"Mediated Recog Prolific",1,29,2023-05-10T00:18:02+00:00,3.9497699737549,6,versionC_stim.csv,JOLVersion_Recog.csv,"JOL Recog",JOL3,FUZZY,BANG,Study1,U,35,7,JOL,User,-,"How likely are you to correctly recall the second item in the pair?|Type your response on a scale from 0-100 and then press Enter.",Study/JOL,"Study Phase",,3488,,,3014,3197,,,,75,1
5dcf0f73af16d3067b87757f,ibj4lzgu97,"Mediated Recog Prolific",1,30,2023-05-10T00:18:04+00:00,2.7992599010468,6,versionC_stim.csv,JOLVersion_Recog.csv,"JOL Recog",JOL3,AFFECTION,LOVE,Study1,F,16,9,JOL,User,-,"How likely are you to correctly recall the second item in the pair?|Type your response on a scale from 0-100 and then press Enter.",Study/JOL,"Study Phase",,2289,,,1753,2015,,,,95,1
5dcf0f73af16d3067b87757f,ibj4lzgu97,"Mediated Recog Prolific",1,31,2023-05-10T00:18:08+00:00,3.8462769985199,6,versionC_stim.csv,JOLVersion_Recog.csv,"JOL Recog",JOL3,SWAN,BIRD,Study1,F,11,32,JOL,User,-,"How likely are you to correctly recall the second item in the pair?|Type your response on a scale from 0-100 and then press Enter.",Study/JOL,"Study Phase",,3348,,,2916,3115,,,,90,1
5dcf0f73af16d3067b87757f,ibj4lzgu97,"Mediated Recog Prolific",1,32,2023-05-10T00:18:11+00:00,2.975065946579,6,versionC_stim.csv,JOLVersion_Recog.csv,"JOL Recog",JOL3,LITTER,TRASH,Study1,F,6,29,JOL,User,-,"How likely are you to correctly recall the second item in the pair?|Type your response on a scale from 0-100 and then press Enter.",Study/JOL,"Study Phase",,2481,,,1671,2151,,,,99,1
5dcf0f73af16d3067b87757f,ibj4lzgu97,"Mediated Recog Prolific",1,33,2023-05-10T00:18:14+00:00,2.622857093811,6,versionC_stim.csv,JOLVersion_Recog.csv,"JOL Recog",JOL3,MIRROR,MAROON,Study1,U,21,17,JOL,User,-,"How likely are you to correctly recall the second item in the pair?|Type your response on a scale from 0-100 and then press Enter.",Study/JOL,"Study Phase",,2148,,,1693,1869,,,,99,1
5dcf0f73af16d3067b87757f,ibj4lzgu97,"Mediated Recog Prolific",1,34,2023-05-10T00:18:28+00:00,13.695342063904,6,versionC_stim.csv,JOLVersion_Recog.csv,"JOL Recog",JOL3,CAKE,HAND,Study1,U,34,12,JOL,User,-,"How likely are you to correctly recall the second item in the pair?|Type your response on a scale from 0-100 and then press Enter.",Study/JOL,"Study Phase",,13065,,,10074,12615,,,,80,1
5dcf0f73af16d3067b87757f,ibj4lzgu97,"Mediated Recog Prolific",1,35,2023-05-10T00:18:30+00:00,2.7442729473114,6,versionC_stim.csv,JOLVersion_Recog.csv,"JOL Recog",JOL3,STRETCH,CLOTH,Study1,U,22,33,JOL,User,-,"How likely are you to correctly recall the second item in the pair?|Type your response on a scale from 0-100 and then press Enter.",Study/JOL,"Study Phase",,2236,,,1772,1978,,,,75,1
5dcf0f73af16d3067b87757f,ibj4lzgu97,"Mediated Recog Prolific",1,36,2023-05-10T00:18:33+00:00,2.5720109939575,6,versionC_stim.csv,JOLVersion_Recog.csv,"JOL Recog",JOL3,WAGE,MONEY,Study1,F,7,19,JOL,User,-,"How likely are you to correctly recall the second item in the pair?|Type your response on a scale from 0-100 and then press Enter.",Study/JOL,"Study Phase",,2087,,,1591,1789,,,,99,1
5dcf0f73af16d3067b87757f,ibj4lzgu97,"Mediated Recog Prolific",1,37,2023-05-10T00:18:39+00:00,5.9699420928955,6,versionC_stim.csv,JOLVersion_Recog.csv,"JOL Recog",JOL3,MAZE,PHONE,Study1,U,27,18,JOL,User,-,"How likely are you to correctly recall the second item in the pair?|Type your response on a scale from 0-100 and then press Enter.",Study/JOL,"Study Phase",,5343,,,4703,4999,,,,99,1
5dcf0f73af16d3067b87757f,ibj4lzgu97,"Mediated Recog Prolific",1,38,2023-05-10T00:18:41+00:00,2.4320249557495,6,versionC_stim.csv,JOLVersion_Recog.csv,"JOL Recog",JOL3,MULE,DONKEY,Study1,F,15,21,JOL,User,-,"How likely are you to correctly recall the second item in the pair?|Type your response on a scale from 0-100 and then press Enter.",Study/JOL,"Study Phase",,1968,,,1496,1711,,,,80,1
5dcf0f73af16d3067b87757f,ibj4lzgu97,"Mediated Recog Prolific",1,39,2023-05-10T00:18:44+00:00,2.6481640338898,6,versionC_stim.csv,JOLVersion_Recog.csv,"JOL Recog",JOL3,GIVE,STEAK,Study1,U,23,10,JOL,User,-,"How likely are you to correctly recall the second item in the pair?|Type your response on a scale from 0-100 and then press Enter.",Study/JOL,"Study Phase",,2164,,,1644,1882,,,,70,1
5dcf0f73af16d3067b87757f,ibj4lzgu97,"Mediated Recog Prolific",1,40,2023-05-10T00:18:47+00:00,2.6895308494568,6,versionC_stim.csv,JOLVersion_Recog.csv,"JOL Recog",JOL3,SHELL,SHAKE,Study1,U,28,35,JOL,User,-,"How likely are you to correctly recall the second item in the pair?|Type your response on a scale from 0-100 and then press Enter.",Study/JOL,"Study Phase",,2211,,,1699,1930,,,,85,1
5dcf0f73af16d3067b87757f,ibj4lzgu97,"Mediated Recog Prolific",1,41,2023-05-10T00:18:52+00:00,5.1012101173401,6,versionC_stim.csv,JOLVersion_Recog.csv,"JOL Recog",JOL3,MOON,SPACE,BUFFER2,Buffer,39,41,JOL,User,-,"How likely are you to correctly recall the second item in the pair?|Type your response on a scale from 0-100 and then press Enter.",Study/JOL,BUFFER2,,4624,,,4112,4358,,,,90,1
5dcf0f73af16d3067b87757f,ibj4lzgu97,"Mediated Recog Prolific",1,42,2023-05-10T00:18:54+00:00,2.1586880683899,6,versionC_stim.csv,JOLVersion_Recog.csv,"JOL Recog",JOL3,MALT,CHOCOLATE,BUFFER2,Buffer,38,38,JOL,User,-,"How likely are you to correctly recall the second item in the pair?|Type your response on a scale from 0-100 and then press Enter.",Study/JOL,BUFFER2,,1699,,,1227,1409,,,,99,1
5dcf0f73af16d3067b87757f,ibj4lzgu97,"Mediated Recog Prolific",1,43,2023-05-10T00:18:57+00:00,3.3404819965363,6,versionC_stim.csv,JOLVersion_Recog.csv,"JOL Recog",JOL3,THING,STUFF,BUFFER2,Buffer,40,37,JOL,User,-,"How likely are you to correctly recall the second item in the pair?|Type your response on a scale from 0-100 and then press Enter.",Study/JOL,BUFFER2,,2862,,,2469,2652,,,,50,1
5dcf0f73af16d3067b87757f,ibj4lzgu97,"Mediated Recog Prolific",1,44,2023-05-10T00:19:00+00:00,3.2350609302521,6,versionC_stim.csv,JOLVersion_Recog.csv,"JOL Recog",JOL3,SHERRIF,POLICE,BUFFER2,Buffer,37,39,JOL,User,-,"How likely are you to correctly recall the second item in the pair?|Type your response on a scale from 0-100 and then press Enter.",Study/JOL,BUFFER2,,2744,,,2296,2479,,,,80,1
5dcf0f73af16d3067b87757f,ibj4lzgu97,"Mediated Recog Prolific",1,45,2023-05-10T00:19:04+00:00,4.01740193367,6,versionC_stim.csv,JOLVersion_Recog.csv,"JOL Recog",JOL3,GEESE,GOOSE,BUFFER2,Buffer,36,40,JOL,User,-,"How likely are you to correctly recall the second item in the pair?|Type your response on a scale from 0-100 and then press Enter.",Study/JOL,BUFFER2,,3512,,,3104,3327,,,,50,1
5dcf0f73af16d3067b87757f,ibj4lzgu97,"Mediated Recog Prolific",1,46,2023-05-10T00:19:07+00:00,2.223573923111,6,versionC_stim.csv,JOLVersion_Recog.csv,"JOL Recog",JOL3,,,,,,0,Instruct,User,-,"You have completed this section. Please press Enter.",Filler_Instruction,Instruct2,,1722,,,-1,-1,,,,,1
5dcf0f73af16d3067b87757f,ibj4lzgu97,"Mediated Recog Prolific",1,47,2023-05-10T00:21:07+00:00,120.71084403992,6,versionC_stim.csv,JOLVersion_Recog.csv,"JOL Recog",JOL3,,,,,,0,FreeRecall,120,120,"Please list the 50 US states in alphabetical order. The task will automatically advance to the next screen after two minutes.",,Filler1,,120022,"Alabama Alaska Arkansas California Carolinas (N&S) Colorado Connecticut Delaware Florida Georgia Hawaii Indiana Kansas Louisiana ",0,7064,113214,0,0,,,1
5dcf0f73af16d3067b87757f,ibj4lzgu97,"Mediated Recog Prolific",1,48,2023-05-10T00:21:20+00:00,12.472645044327,6,versionC_stim.csv,JOLVersion_Recog.csv,"JOL Recog",JOL3,,,,,,0,Instruct,User,10,"Your memory will now be tested. You will be presented with a series of words that may or may not have previously been presented alongisde another word. If the word on the screen was previously studied, please select YES. If the word was not studied, select NO. PLEASE DO NOT SKIP ITEMS! Click next when you are ready to begin.",,Instruc7982154d,,11766,,,-1,-1,,,,,1
5dcf0f73af16d3067b87757f,ibj4lzgu97,"Mediated Recog Prolific",1,49,2023-05-10T00:21:24+00:00,4.5016801357269,6,versionC_stim.csv,JOLVersion_Recog.csv,"JOL Recog",JOL3,,MAROON,RECOG,Presented,86,54,Likert,User,1,"Was this item previously studied?",CONTROL,Recog,1::2,4030,YES,0,-1,-1,0,0,,,1
5dcf0f73af16d3067b87757f,ibj4lzgu97,"Mediated Recog Prolific",1,50,2023-05-10T00:21:28+00:00,3.493124961853,6,versionC_stim.csv,JOLVersion_Recog.csv,"JOL Recog",JOL3,,FIRE,RECOG,CONTROL,46,63,Likert,User,1,"Was this item previously studied?",CONTROL,Recog,1::2,2990,NO,0,-1,-1,0,0,,,1
5dcf0f73af16d3067b87757f,ibj4lzgu97,"Mediated Recog Prolific",1,51,2023-05-10T00:21:31+00:00,3.2890310287476,6,versionC_stim.csv,JOLVersion_Recog.csv,"JOL Recog",JOL3,,TOIL,RECOG,CONTROL,66,75,Likert,User,1,"Was this item previously studied?",PRESENTED,Recog,1::2,2747,NO,33.333333333333,-1,-1,0,0,,,1
5dcf0f73af16d3067b87757f,ibj4lzgu97,"Mediated Recog Prolific",1,52,2023-05-10T00:21:34+00:00,2.51154088974,6,versionC_stim.csv,JOLVersion_Recog.csv,"JOL Recog",JOL3,,BASEBALL,RECOG,CONTROL,49,96,Likert,User,1,"Was this item previously studied?",PRESENTED,Recog,1::2,2031,NO,0,-1,-1,0,0,,,1
5dcf0f73af16d3067b87757f,ibj4lzgu97,"Mediated Recog Prolific",1,53,2023-05-10T00:21:38+00:00,4.7792310714722,6,versionC_stim.csv,JOLVersion_Recog.csv,"JOL Recog",JOL3,,FIGHT,RECOG,CONTROL,51,44,Likert,User,1,"Was this item previously studied?",CONTROL,Recog,1::2,4326,NO,0,-1,-1,0,0,,,1
5dcf0f73af16d3067b87757f,ibj4lzgu97,"Mediated Recog Prolific",1,54,2023-05-10T00:21:41+00:00,2.701180934906,6,versionC_stim.csv,JOLVersion_Recog.csv,"JOL Recog",JOL3,,PLANT,RECOG,CONTROL,41,62,Likert,User,1,"Was this item previously studied?",CONTROL,Recog,1::2,2225,YES,0,-1,-1,0,0,,,1
5dcf0f73af16d3067b87757f,ibj4lzgu97,"Mediated Recog Prolific",1,55,2023-05-10T00:21:44+00:00,2.5074739456177,6,versionC_stim.csv,JOLVersion_Recog.csv,"JOL Recog",JOL3,,BUG,RECOG,CONTROL,54,87,Likert,User,1,"Was this item previously studied?",PRESENTED,Recog,1::2,2039,NO,0,-1,-1,0,0,,,1
5dcf0f73af16d3067b87757f,ibj4lzgu97,"Mediated Recog Prolific",1,56,2023-05-10T00:21:47+00:00,3.3283369541168,6,versionC_stim.csv,JOLVersion_Recog.csv,"JOL Recog",JOL3,,HAMMER,RECOG,CONTROL,43,94,Likert,User,1,"Was this item previously studied?",PRESENTED,Recog,1::2,2867,NO,0,-1,-1,0,0,,,1
5dcf0f73af16d3067b87757f,ibj4lzgu97,"Mediated Recog Prolific",1,57,2023-05-10T00:21:50+00:00,2.6860420703888,6,versionC_stim.csv,JOLVersion_Recog.csv,"JOL Recog",JOL3,,WOLF,RECOG,CONTROL,58,91,Likert,User,1,"Was this item previously studied?",PRESENTED,Recog,1::2,2215,NO,33.333333333333,-1,-1,0,0,,,1
5dcf0f73af16d3067b87757f,ibj4lzgu97,"Mediated Recog Prolific",1,58,2023-05-10T00:21:53+00:00,3.0751030445099,6,versionC_stim.csv,JOLVersion_Recog.csv,"JOL Recog",JOL3,,TRASH,RECOG,Presented,71,60,Likert,User,1,"Was this item previously studied?",CONTROL,Recog,1::2,2621,YES,25,-1,-1,0,0,,,1
5dcf0f73af16d3067b87757f,ibj4lzgu97,"Mediated Recog Prolific",1,59,2023-05-10T00:21:56+00:00,3.4500799179077,6,versionC_stim.csv,JOLVersion_Recog.csv,"JOL Recog",JOL3,,PHONE,RECOG,Presented,92,88,Likert,User,1,"Was this item previously studied?",PRESENTED,Recog,1::2,2800,YES,25,-1,-1,0,0,,,1
5dcf0f73af16d3067b87757f,ibj4lzgu97,"Mediated Recog Prolific",1,60,2023-05-10T00:21:59+00:00,2.6279540061951,6,versionC_stim.csv,JOLVersion_Recog.csv,"JOL Recog",JOL3,,CLEAN,RECOG,Presented,78,95,Likert,User,1,"Was this item previously studied?",PRESENTED,Recog,1::2,2160,YES,25,-1,-1,0,0,,,1
5dcf0f73af16d3067b87757f,ibj4lzgu97,"Mediated Recog Prolific",1,61,2023-05-10T00:22:02+00:00,2.9042620658875,6,versionC_stim.csv,JOLVersion_Recog.csv,"JOL Recog",JOL3,,BUSINESS,RECOG,CONTROL,64,42,Likert,User,1,"Was this item previously studied?",CONTROL,Recog,1::2,2445,NO,20,-1,-1,0,0,,,1
5dcf0f73af16d3067b87757f,ibj4lzgu97,"Mediated Recog Prolific",1,62,2023-05-10T00:22:05+00:00,3.7402560710907,6,versionC_stim.csv,JOLVersion_Recog.csv,"JOL Recog",JOL3,,SACK,RECOG,CONTROL,62,89,Likert,User,1,"Was this item previously studied?",PRESENTED,Recog,1::2,2972,NO,0,-1,-1,0,0,,,1
5dcf0f73af16d3067b87757f,ibj4lzgu97,"Mediated Recog Prolific",1,63,2023-05-10T00:22:08+00:00,2.4874730110168,6,versionC_stim.csv,JOLVersion_Recog.csv,"JOL Recog",JOL3,,HORN,RECOG,CONTROL,63,53,Likert,User,1,"Was this item previously studied?",CONTROL,Recog,1::2,2009,NO,33.333333333333,-1,-1,0,0,,,1
5dcf0f73af16d3067b87757f,ibj4lzgu97,"Mediated Recog Prolific",1,64,2023-05-10T00:22:10+00:00,2.4265768527985,6,versionC_stim.csv,JOLVersion_Recog.csv,"JOL Recog",JOL3,,HEAD,RECOG,Presented,73,67,Likert,User,1,"Was this item previously studied?",CONTROL,Recog,1::2,1938,NO,0,-1,-1,0,0,,,1
5dcf0f73af16d3067b87757f,ibj4lzgu97,"Mediated Recog Prolific",1,65,2023-05-10T00:22:13+00:00,2.4105861186981,6,versionC_stim.csv,JOLVersion_Recog.csv,"JOL Recog",JOL3,,SMELL,RECOG,CONTROL,48,49,Likert,User,1,"Was this item previously studied?",CONTROL,Recog,1::2,1924,NO,0,-1,-1,0,0,,,1
5dcf0f73af16d3067b87757f,ibj4lzgu97,"Mediated Recog Prolific",1,66,2023-05-10T00:22:16+00:00,2.9597790241241,6,versionC_stim.csv,JOLVersion_Recog.csv,"JOL Recog",JOL3,,CHARM,RECOG,Presented,90,47,Likert,User,1,"Was this item previously studied?",CONTROL,Recog,1::2,2495,YES,0,-1,-1,0,0,,,1
5dcf0f73af16d3067b87757f,ibj4lzgu97,"Mediated Recog Prolific",1,67,2023-05-10T00:22:19+00:00,2.8693280220032,6,versionC_stim.csv,JOLVersion_Recog.csv,"JOL Recog",JOL3,,DONKEY,RECOG,Presented,74,56,Likert,User,1,"Was this item previously studied?",CONTROL,Recog,1::2,2380,YES,22.222222222222,-1,-1,0,0,,,1
5dcf0f73af16d3067b87757f,ibj4lzgu97,"Mediated Recog Prolific",1,68,2023-05-10T00:22:21+00:00,2.5759580135345,6,versionC_stim.csv,JOLVersion_Recog.csv,"JOL Recog",JOL3,,RIDDLE,RECOG,CONTROL,60,69,Likert,User,1,"Was this item previously studied?",CONTROL,Recog,1::2,2080,NO,0,-1,-1,0,0,,,1
5dcf0f73af16d3067b87757f,ibj4lzgu97,"Mediated Recog Prolific",1,69,2023-05-10T00:22:25+00:00,3.5511178970337,6,versionC_stim.csv,JOLVersion_Recog.csv,"JOL Recog",JOL3,,STEAK,RECOG,Presented,88,70,Likert,User,1,"Was this item previously studied?",CONTROL,Recog,1::2,3024,YES,25,-1,-1,0,0,,,1
5dcf0f73af16d3067b87757f,ibj4lzgu97,"Mediated Recog Prolific",1,70,2023-05-10T00:22:28+00:00,3.4763948917389,6,versionC_stim.csv,JOLVersion_Recog.csv,"JOL Recog",JOL3,,SLEEP,RECOG,Presented,79,46,Likert,User,1,"Was this item previously studied?",CONTROL,Recog,1::2,2989,YES,25,-1,-1,0,0,,,1
5dcf0f73af16d3067b87757f,ibj4lzgu97,"Mediated Recog Prolific",1,71,2023-05-10T00:22:31+00:00,3.2268249988556,6,versionC_stim.csv,JOLVersion_Recog.csv,"JOL Recog",JOL3,,SENTENCE,RECOG,Presented,77,58,Likert,User,1,"Was this item previously studied?",CONTROL,Recog,1::2,2607,YES,18.181818181818,-1,-1,0,0,,,1
5dcf0f73af16d3067b87757f,ibj4lzgu97,"Mediated Recog Prolific",1,72,2023-05-10T00:22:35+00:00,3.3153970241547,6,versionC_stim.csv,JOLVersion_Recog.csv,"JOL Recog",JOL3,,DRINK,RECOG,Presented,82,51,Likert,User,1,"Was this item previously studied?",CONTROL,Recog,1::2,2836,YES,0,-1,-1,0,0,,,1
5dcf0f73af16d3067b87757f,ibj4lzgu97,"Mediated Recog Prolific",1,73,2023-05-10T00:22:38+00:00,3.1636040210724,6,versionC_stim.csv,JOLVersion_Recog.csv,"JOL Recog",JOL3,,LEG,RECOG,CONTROL,70,84,Likert,User,1,"Was this item previously studied?",PRESENTED,Recog,1::2,2693,NO,0,-1,-1,0,0,,,1
5dcf0f73af16d3067b87757f,ibj4lzgu97,"Mediated Recog Prolific",1,74,2023-05-10T00:22:40+00:00,2.3980400562286,6,versionC_stim.csv,JOLVersion_Recog.csv,"JOL Recog",JOL3,,COW,RECOG,Presented,80,48,Likert,User,1,"Was this item previously studied?",CONTROL,Recog,1::2,1800,YES,0,-1,-1,0,0,,,1
5dcf0f73af16d3067b87757f,ibj4lzgu97,"Mediated Recog Prolific",1,75,2023-05-10T00:22:43+00:00,2.8342189788818,6,versionC_stim.csv,JOLVersion_Recog.csv,"JOL Recog",JOL3,,CUT,RECOG,CONTROL,42,82,Likert,User,1,"Was this item previously studied?",PRESENTED,Recog,1::2,2343,NO,0,-1,-1,0,0,,,1
5dcf0f73af16d3067b87757f,ibj4lzgu97,"Mediated Recog Prolific",1,76,2023-05-10T00:22:46+00:00,2.800087928772,6,versionC_stim.csv,JOLVersion_Recog.csv,"JOL Recog",JOL3,,ACCIDENT,RECOG,CONTROL,59,73,Likert,User,1,"Was this item previously studied?",PRESENTED,Recog,1::2,2300,NO,20,-1,-1,0,0,,,1
5dcf0f73af16d3067b87757f,ibj4lzgu97,"Mediated Recog Prolific",1,77,2023-05-10T00:22:50+00:00,4.268336057663,6,versionC_stim.csv,JOLVersion_Recog.csv,"JOL Recog",JOL3,,CLOTH,RECOG,Presented,87,92,Likert,User,1,"Was this item previously studied?",PRESENTED,Recog,1::2,3815,NO,28.571428571429,-1,-1,0,0,,,1
5dcf0f73af16d3067b87757f,ibj4lzgu97,"Mediated Recog Prolific",1,78,2023-05-10T00:22:53+00:00,3.0148839950562,6,versionC_stim.csv,JOLVersion_Recog.csv,"JOL Recog",JOL3,,ROD,RECOG,Presented,95,100,Likert,User,1,"Was this item previously studied?",PRESENTED,Recog,1::2,2541,YES,0,-1,-1,0,0,,,1
5dcf0f73af16d3067b87757f,ibj4lzgu97,"Mediated Recog Prolific",1,79,2023-05-10T00:22:57+00:00,3.6668190956116,6,versionC_stim.csv,JOLVersion_Recog.csv,"JOL Recog",JOL3,,MORNING,RECOG,Presented,98,81,Likert,User,1,"Was this item previously studied?",PRESENTED,Recog,1::2,3190,NO,22.222222222222,-1,-1,0,0,,,1
5dcf0f73af16d3067b87757f,ibj4lzgu97,"Mediated Recog Prolific",1,80,2023-05-10T00:23:00+00:00,2.9647278785706,6,versionC_stim.csv,JOLVersion_Recog.csv,"JOL Recog",JOL3,,MONEY,RECOG,Presented,72,78,Likert,User,1,"Was this item previously studied?",PRESENTED,Recog,1::2,2485,YES,25,-1,-1,0,0,,,1
5dcf0f73af16d3067b87757f,ibj4lzgu97,"Mediated Recog Prolific",1,81,2023-05-10T00:23:03+00:00,3.2241549491882,6,versionC_stim.csv,JOLVersion_Recog.csv,"JOL Recog",JOL3,,CAR,RECOG,CONTROL,57,97,Likert,User,1,"Was this item previously studied?",PRESENTED,Recog,1::2,2732,NO,0,-1,-1,0,0,,,1
5dcf0f73af16d3067b87757f,ibj4lzgu97,"Mediated Recog Prolific",1,82,2023-05-10T00:23:06+00:00,2.8413691520691,6,versionC_stim.csv,JOLVersion_Recog.csv,"JOL Recog",JOL3,,RED,RECOG,CONTROL,45,90,Likert,User,1,"Was this item previously studied?",PRESENTED,Recog,1::2,2396,NO,0,-1,-1,0,0,,,1
5dcf0f73af16d3067b87757f,ibj4lzgu97,"Mediated Recog Prolific",1,83,2023-05-10T00:23:09+00:00,3.4883358478546,6,versionC_stim.csv,JOLVersion_Recog.csv,"JOL Recog",JOL3,,KEYS,RECOG,Presented,91,43,Likert,User,1,"Was this item previously studied?",CONTROL,Recog,1::2,3003,YES,57.142857142857,-1,-1,0,0,,,1
5dcf0f73af16d3067b87757f,ibj4lzgu97,"Mediated Recog Prolific",1,84,2023-05-10T00:23:13+00:00,3.3927631378174,6,versionC_stim.csv,JOLVersion_Recog.csv,"JOL Recog",JOL3,,BIRD,RECOG,Presented,76,80,Likert,User,1,"Was this item previously studied?",PRESENTED,Recog,1::2,2895,YES,0,-1,-1,0,0,,,1
5dcf0f73af16d3067b87757f,ibj4lzgu97,"Mediated Recog Prolific",1,85,2023-05-10T00:23:16+00:00,2.8267660140991,6,versionC_stim.csv,JOLVersion_Recog.csv,"JOL Recog",JOL3,,OUNCE,RECOG,CONTROL,67,52,Likert,User,1,"Was this item previously studied?",CONTROL,Recog,1::2,2322,NO,28.571428571429,-1,-1,0,0,,,1
5dcf0f73af16d3067b87757f,ibj4lzgu97,"Mediated Recog Prolific",1,86,2023-05-10T00:23:19+00:00,2.9688889980316,6,versionC_stim.csv,JOLVersion_Recog.csv,"JOL Recog",JOL3,,LOVE,RECOG,Presented,81,85,Likert,User,1,"Was this item previously studied?",PRESENTED,Recog,1::2,2490,YES,28.571428571429,-1,-1,0,0,,,1
5dcf0f73af16d3067b87757f,ibj4lzgu97,"Mediated Recog Prolific",1,87,2023-05-10T00:23:21+00:00,2.5855729579926,6,versionC_stim.csv,JOLVersion_Recog.csv,"JOL Recog",JOL3,,ELECTION,RECOG,Presented,89,71,Likert,User,1,"Was this item previously studied?",CONTROL,Recog,1::2,2102,YES,18.181818181818,-1,-1,0,0,,,1
5dcf0f73af16d3067b87757f,ibj4lzgu97,"Mediated Recog Prolific",1,88,2023-05-10T00:23:24+00:00,2.672394990921,6,versionC_stim.csv,JOLVersion_Recog.csv,"JOL Recog",JOL3,,SHAKE,RECOG,Presented,93,55,Likert,User,1,"Was this item previously studied?",CONTROL,Recog,1::2,2138,YES,25,-1,-1,0,0,,,1
5dcf0f73af16d3067b87757f,ibj4lzgu97,"Mediated Recog Prolific",1,89,2023-05-10T00:23:27+00:00,2.91246509552,6,versionC_stim.csv,JOLVersion_Recog.csv,"JOL Recog",JOL3,,BANG,RECOG,Presented,100,59,Likert,User,1,"Was this item previously studied?",CONTROL,Recog,1::2,2436,YES,0,-1,-1,0,0,,,1
5dcf0f73af16d3067b87757f,ibj4lzgu97,"Mediated Recog Prolific",1,90,2023-05-10T00:23:31+00:00,4.4794588088989,6,versionC_stim.csv,JOLVersion_Recog.csv,"JOL Recog",JOL3,,CARD,RECOG,Presented,83,93,Likert,User,1,"Was this item previously studied?",PRESENTED,Recog,1::2,3711,YES,0,-1,-1,0,0,,,1
5dcf0f73af16d3067b87757f,ibj4lzgu97,"Mediated Recog Prolific",1,91,2023-05-10T00:23:34+00:00,2.6748020648956,6,versionC_stim.csv,JOLVersion_Recog.csv,"JOL Recog",JOL3,,COW,RECOG,CONTROL,53,99,Likert,User,1,"Was this item previously studied?",PRESENTED,Recog,1::2,2171,YES,0,-1,-1,0,0,,,1
5dcf0f73af16d3067b87757f,ibj4lzgu97,"Mediated Recog Prolific",1,92,2023-05-10T00:23:38+00:00,3.6605651378632,6,versionC_stim.csv,JOLVersion_Recog.csv,"JOL Recog",JOL3,,FLOWER,RECOG,Presented,84,61,Likert,User,1,"Was this item previously studied?",CONTROL,Recog,1::2,3190,YES,22.222222222222,-1,-1,0,0,,,1
5dcf0f73af16d3067b87757f,ibj4lzgu97,"Mediated Recog Prolific",1,93,2023-05-10T00:23:40+00:00,2.4129729270935,6,versionC_stim.csv,JOLVersion_Recog.csv,"JOL Recog",JOL3,,PLANT,RECOG,Presented,75,57,Likert,User,1,"Was this item previously studied?",CONTROL,Recog,1::2,1940,YES,0,-1,-1,0,0,,,1
5dcf0f73af16d3067b87757f,ibj4lzgu97,"Mediated Recog Prolific",1,94,2023-05-10T00:23:44+00:00,4.0657720565796,6,versionC_stim.csv,JOLVersion_Recog.csv,"JOL Recog",JOL3,,FICTION,RECOG,Presented,94,76,Likert,User,1,"Was this item previously studied?",PRESENTED,Recog,1::2,3581,NO,22.222222222222,-1,-1,0,0,,,1
5dcf0f73af16d3067b87757f,ibj4lzgu97,"Mediated Recog Prolific",1,95,2023-05-10T00:23:47+00:00,2.467808008194,6,versionC_stim.csv,JOLVersion_Recog.csv,"JOL Recog",JOL3,,CLUTTER,RECOG,CONTROL,61,79,Likert,User,1,"Was this item previously studied?",PRESENTED,Recog,1::2,1941,NO,0,-1,-1,0,0,,,1
5dcf0f73af16d3067b87757f,ibj4lzgu97,"Mediated Recog Prolific",1,96,2023-05-10T00:23:49+00:00,2.3733808994293,6,versionC_stim.csv,JOLVersion_Recog.csv,"JOL Recog",JOL3,,STING,RECOG,CONTROL,50,77,Likert,User,1,"Was this item previously studied?",PRESENTED,Recog,1::2,1890,NO,28.571428571429,-1,-1,0,0,,,1
5dcf0f73af16d3067b87757f,ibj4lzgu97,"Mediated Recog Prolific",1,97,2023-05-10T00:23:53+00:00,4.3649840354919,6,versionC_stim.csv,JOLVersion_Recog.csv,"JOL Recog",JOL3,,CLOTHES,RECOG,CONTROL,44,98,Likert,User,1,"Was this item previously studied?",PRESENTED,Recog,1::2,3862,NO,22.222222222222,-1,-1,0,0,,,1
5dcf0f73af16d3067b87757f,ibj4lzgu97,"Mediated Recog Prolific",1,98,2023-05-10T00:23:57+00:00,3.2336690425873,6,versionC_stim.csv,JOLVersion_Recog.csv,"JOL Recog",JOL3,,CHILDREN,RECOG,CONTROL,69,50,Likert,User,1,"Was this item previously studied?",CONTROL,Recog,1::2,2414,NO,20,-1,-1,0,0,,,1
5dcf0f73af16d3067b87757f,ibj4lzgu97,"Mediated Recog Prolific",1,99,2023-05-10T00:24:03+00:00,6.8040180206299,6,versionC_stim.csv,JOLVersion_Recog.csv,"JOL Recog",JOL3,,WATER,RECOG,CONTROL,55,66,Likert,User,1,"Was this item previously studied?",CONTROL,Recog,1::2,5859,NO,0,-1,-1,0,0,,,1
5dcf0f73af16d3067b87757f,ibj4lzgu97,"Mediated Recog Prolific",1,100,2023-05-10T00:24:06+00:00,3.0689108371735,6,versionC_stim.csv,JOLVersion_Recog.csv,"JOL Recog",JOL3,,COLD,RECOG,CONTROL,52,86,Likert,User,1,"Was this item previously studied?",PRESENTED,Recog,1::2,2596,NO,33.333333333333,-1,-1,0,0,,,1
5dcf0f73af16d3067b87757f,ibj4lzgu97,"Mediated Recog Prolific",1,101,2023-05-10T00:24:10+00:00,3.180251121521,6,versionC_stim.csv,JOLVersion_Recog.csv,"JOL Recog",JOL3,,PAPER,RECOG,CONTROL,47,64,Likert,User,1,"Was this item previously studied?",CONTROL,Recog,1::2,2728,NO,0,-1,-1,0,0,,,1
5dcf0f73af16d3067b87757f,ibj4lzgu97,"Mediated Recog Prolific",1,102,2023-05-10T00:24:12+00:00,2.4702620506287,6,versionC_stim.csv,JOLVersion_Recog.csv,"JOL Recog",JOL3,,HIDE,RECOG,CONTROL,65,68,Likert,User,1,"Was this item previously studied?",CONTROL,Recog,1::2,1965,NO,0,-1,-1,0,0,,,1
5dcf0f73af16d3067b87757f,ibj4lzgu97,"Mediated Recog Prolific",1,103,2023-05-10T00:24:14+00:00,2.323383808136,6,versionC_stim.csv,JOLVersion_Recog.csv,"JOL Recog",JOL3,,FISH,RECOG,Presented,85,83,Likert,User,1,"Was this item previously studied?",PRESENTED,Recog,1::2,1861,YES,28.571428571429,-1,-1,0,0,,,1
5dcf0f73af16d3067b87757f,ibj4lzgu97,"Mediated Recog Prolific",1,104,2023-05-10T00:24:17+00:00,2.5443971157074,6,versionC_stim.csv,JOLVersion_Recog.csv,"JOL Recog",JOL3,,BRONZE,RECOG,CONTROL,68,101,Likert,User,1,"Was this item previously studied?",PRESENTED,Recog,1::2,2062,NO,25,-1,-1,0,0,,,1
5dcf0f73af16d3067b87757f,ibj4lzgu97,"Mediated Recog Prolific",1,105,2023-05-10T00:24:20+00:00,3.0289840698242,6,versionC_stim.csv,JOLVersion_Recog.csv,"JOL Recog",JOL3,,HAND,RECOG,Presented,99,72,Likert,User,1,"Was this item previously studied?",PRESENTED,Recog,1::2,2547,NO,33.333333333333,-1,-1,0,0,,,1
5dcf0f73af16d3067b87757f,ibj4lzgu97,"Mediated Recog Prolific",1,106,2023-05-10T00:24:24+00:00,3.9662199020386,6,versionC_stim.csv,JOLVersion_Recog.csv,"JOL Recog",JOL3,,BELT,RECOG,Presented,96,74,Likert,User,1,"Was this item previously studied?",PRESENTED,Recog,1::2,3479,NO,0,-1,-1,0,0,,,1
5dcf0f73af16d3067b87757f,ibj4lzgu97,"Mediated Recog Prolific",1,107,2023-05-10T00:24:27+00:00,3.1503520011902,6,versionC_stim.csv,JOLVersion_Recog.csv,"JOL Recog",JOL3,,TICK,RECOG,Presented,97,45,Likert,User,1,"Was this item previously studied?",CONTROL,Recog,1::2,2686,YES,0,-1,-1,0,0,,,1
5dcf0f73af16d3067b87757f,ibj4lzgu97,"Mediated Recog Prolific",1,108,2023-05-10T00:24:30+00:00,3.1126120090485,6,versionC_stim.csv,JOLVersion_Recog.csv,"JOL Recog",JOL3,,VASE,RECOG,CONTROL,56,65,Likert,User,1,"Was this item previously studied?",CONTROL,Recog,1::2,2647,NO,0,-1,-1,0,0,,,1
5dcf0f73af16d3067b87757f,ibj4lzgu97,"Mediated Recog Prolific",1,109,2023-05-10T00:24:32+00:00,2.1952791213989,6,versionC_stim.csv,JOLVersion_Recog.csv,"JOL Recog",JOL3,,,,,,0,Instruct,User,-,"You have completed this section. Please press Enter.",,Instruct7,,1669,,,-1,-1,,,,,1
5dcf0f73af16d3067b87757f,ibj4lzgu97,"Mediated Recog Prolific",1,110,2023-05-10T00:24:36+00:00,3.2822918891907,6,versionC_stim.csv,JOLVersion_Recog.csv,"JOL Recog",JOL3,,,,,,0,Instruct,User,-,"The following screen will ask you a few questions abour your experience today. You must complete these questions to receive credit.",,Instruct8,,2824,,,-1,-1,,,,,1
