"Username","Condition.Number","Condition.Description","Stimuli.Cue","Stimuli.Answer","Stimuli.Shuffle","Stimuli.Stimuli.Notes","Stimuli.Value","Procedure.Item","Procedure.Trial.Type","Procedure.Shuffle","Procedure.","Response.RT","Response.Response","Response.JOL"
"545d347afdf99b7f9fca22c7",7,"Read Recog","FEUD","FIGHT","Study2","F",16,9,"Study","Study Phase","",3540,"",NA
"545d347afdf99b7f9fca22c7",7,"Read Recog","MIRROR","CHILDREN","Study2","U",34,20,"Study","Study Phase","",2471,"",NA
"545d347afdf99b7f9fca22c7",7,"Read Recog","ART","WOLF","Study2","U",23,16,"Study","Study Phase","",2603,"",NA
"545d347afdf99b7f9fca22c7",7,"Read Recog","CHOP","CUT","Study2","F",7,29,"Study","Study Phase","",2851,"",NA
"545d347afdf99b7f9fca22c7",7,"Read Recog","CHERRY","RED","Study2","F",10,22,"Study","Study Phase","",2340,"",NA
"545d347afdf99b7f9fca22c7",7,"Read Recog","HORNET","STING","Study2","F",15,12,"Study","Study Phase","",2612,"",NA
"545d347afdf99b7f9fca22c7",7,"Read Recog","CHILL","COLD","Study2","F",17,36,"Study","Study Phase","",2669,"",NA
"545d347afdf99b7f9fca22c7",7,"Read Recog","WASP","BUG","Study2","F",19,27,"Study","Study Phase","",2534,"",NA
"545d347afdf99b7f9fca22c7",7,"Read Recog","KING","VASE","Study2","U",21,32,"Study","Study Phase","",2782,"",NA
"545d347afdf99b7f9fca22c7",7,"Read Recog","ARTERY","BRONZE","Study2","U",33,23,"Study","Study Phase","",4383,"",NA
"545d347afdf99b7f9fca22c7",7,"Read Recog","DIETARY","SACK","Study2","U",27,19,"Study","Study Phase","",5615,"",NA
"545d347afdf99b7f9fca22c7",7,"Read Recog","SICK","HIDE","Study2","U",30,33,"Study","Study Phase","",3449,"",NA
"545d347afdf99b7f9fca22c7",7,"Read Recog","LEAGUE","BASEBALL","Study2","F",14,30,"Study","Study Phase","",3474,"",NA
"545d347afdf99b7f9fca22c7",7,"Read Recog","BLAZE","FIRE","Study2","F",11,35,"Study","Study Phase","",2144,"",NA
"545d347afdf99b7f9fca22c7",7,"Read Recog","ATTIRE","CLOTHES","Study2","F",9,7,"Study","Study Phase","",4580,"",NA
"545d347afdf99b7f9fca22c7",7,"Read Recog","DOCUMENT","PAPER","Study2","F",12,26,"Study","Study Phase","",3068,"",NA
"545d347afdf99b7f9fca22c7",7,"Read Recog","PUSH","CLUTTER","Study2","U",26,10,"Study","Study Phase","",3785,"",NA
"545d347afdf99b7f9fca22c7",7,"Read Recog","BRIDGE","WATER","Study2","F",20,15,"Study","Study Phase","",2820,"",NA
"545d347afdf99b7f9fca22c7",7,"Read Recog","DEATH","BUSINESS","Study2","U",29,31,"Study","Study Phase","",2463,"",NA
"545d347afdf99b7f9fca22c7",7,"Read Recog","BENCH","HORN","Study2","U",28,28,"Study","Study Phase","",2491,"",NA
"545d347afdf99b7f9fca22c7",7,"Read Recog","HAPPY","CAR","Study2","U",22,8,"Study","Study Phase","",2559,"",NA
"545d347afdf99b7f9fca22c7",7,"Read Recog","LEASE","TOIL","Study2","U",31,17,"Study","Study Phase","",2897,"",NA
"545d347afdf99b7f9fca22c7",7,"Read Recog","SUGAR","RIDDLE","Study2","U",25,21,"Study","Study Phase","",2709,"",NA
"545d347afdf99b7f9fca22c7",7,"Read Recog","CHISEL","HAMMER","Study2","F",8,24,"Study","Study Phase","",2579,"",NA
"545d347afdf99b7f9fca22c7",7,"Read Recog","CACTUS","PLANT","Study2","F",6,34,"Study","Study Phase","",2951,"",NA
"545d347afdf99b7f9fca22c7",7,"Read Recog","BOTH","OUNCE","Study2","U",32,11,"Study","Study Phase","",3454,"",NA
"545d347afdf99b7f9fca22c7",7,"Read Recog","STRONG","ACCIDENT","Study2","U",24,25,"Study","Study Phase","",2680,"",NA
"545d347afdf99b7f9fca22c7",7,"Read Recog","CASH","LEG","Study2","U",35,14,"Study","Study Phase","",2457,"",NA
"545d347afdf99b7f9fca22c7",7,"Read Recog","INCENSE","SMELL","Study2","F",13,18,"Study","Study Phase","",2818,"",NA
"545d347afdf99b7f9fca22c7",7,"Read Recog","HERD","COW","Study2","F",18,13,"Study","Study Phase","",2720,"",NA
"55f9e9564f51400011296872",5,"Read Recog","HORSE","COW","Study1","F",9,19,"Study","Study Phase","",1509,"",NA
"55f9e9564f51400011296872",5,"Read Recog","STRETCH","CLOTH","Study1","U",22,17,"Study","Study Phase","",2583,"",NA
"55f9e9564f51400011296872",5,"Read Recog","LISTEN","FICTION","Study1","U",29,21,"Study","Study Phase","",1791,"",NA
"55f9e9564f51400011296872",5,"Read Recog","SIGN","TICK","Study1","U",32,29,"Study","Study Phase","",1440,"",NA
"55f9e9564f51400011296872",5,"Read Recog","MULE","DONKEY","Study1","F",15,22,"Study","Study Phase","",1911,"",NA
"55f9e9564f51400011296872",5,"Read Recog","VEHICLE","CHARM","Study1","U",25,25,"Study","Study Phase","",883,"",NA
"55f9e9564f51400011296872",5,"Read Recog","MAZE","PHONE","Study1","U",27,36,"Study","Study Phase","",1377,"",NA
"55f9e9564f51400011296872",5,"Read Recog","SCALP","HEAD","Study1","F",8,11,"Study","Study Phase","",1573,"",NA
"55f9e9564f51400011296872",5,"Read Recog","TUNA","FISH","Study1","F",20,30,"Study","Study Phase","",1042,"",NA
"55f9e9564f51400011296872",5,"Read Recog","NAP","SLEEP","Study1","F",14,10,"Study","Study Phase","",921,"",NA
"55f9e9564f51400011296872",5,"Read Recog","CAKE","HAND","Study1","U",34,35,"Study","Study Phase","",2180,"",NA
"55f9e9564f51400011296872",5,"Read Recog","KEYS","ROD","Study1","U",30,32,"Study","Study Phase","",1538,"",NA
"55f9e9564f51400011296872",5,"Read Recog","HYGIENE","CLEAN","Study1","F",13,8,"Study","Study Phase","",1611,"",NA
"55f9e9564f51400011296872",5,"Read Recog","SHELL","SHAKE","Study1","U",28,16,"Study","Study Phase","",2954,"",NA
"55f9e9564f51400011296872",5,"Read Recog","TEMPERATURE","MORNING","Study1","U",33,27,"Study","Study Phase","",2234,"",NA
"55f9e9564f51400011296872",5,"Read Recog","WORD","SENTENCE","Study1","F",12,31,"Study","Study Phase","",1542,"",NA
"55f9e9564f51400011296872",5,"Read Recog","CREDIT","CARD","Study1","F",18,33,"Study","Study Phase","",1318,"",NA
"55f9e9564f51400011296872",5,"Read Recog","CRACKLE","ELECTION","Study1","U",24,7,"Study","Study Phase","",2031,"",NA
"55f9e9564f51400011296872",5,"Read Recog","WAGE","MONEY","Study1","F",7,15,"Study","Study Phase","",1582,"",NA
"55f9e9564f51400011296872",5,"Read Recog","MIRROR","MAROON","Study1","U",21,26,"Study","Study Phase","",2048,"",NA
"55f9e9564f51400011296872",5,"Read Recog","GIVE","STEAK","Study1","U",23,9,"Study","Study Phase","",2074,"",NA
"55f9e9564f51400011296872",5,"Read Recog","SOON","BELT","Study1","U",31,24,"Study","Study Phase","",1607,"",NA
"55f9e9564f51400011296872",5,"Read Recog","SWAN","BIRD","Study1","F",11,14,"Study","Study Phase","",908,"",NA
"55f9e9564f51400011296872",5,"Read Recog","ROOT","PLANT","Study1","F",10,34,"Study","Study Phase","",1349,"",NA
"55f9e9564f51400011296872",5,"Read Recog","FUZZY","BANG","Study1","U",35,12,"Study","Study Phase","",1827,"",NA
"55f9e9564f51400011296872",5,"Read Recog","SIP","DRINK","Study1","F",17,23,"Study","Study Phase","",1305,"",NA
"55f9e9564f51400011296872",5,"Read Recog","AFFECTION","LOVE","Study1","F",16,28,"Study","Study Phase","",1022,"",NA
"55f9e9564f51400011296872",5,"Read Recog","ORCHID","FLOWER","Study1","F",19,20,"Study","Study Phase","",964,"",NA
"55f9e9564f51400011296872",5,"Read Recog","MEAT","KEYS","Study1","U",26,13,"Study","Study Phase","",813,"",NA
"55f9e9564f51400011296872",5,"Read Recog","LITTER","TRASH","Study1","F",6,18,"Study","Study Phase","",918,"",NA
"568aebfc39a70e000b57acf9",7,"Read Recog","BOTH","OUNCE","Study2","U",32,30,"Study","Study Phase","",3168,"",NA
"568aebfc39a70e000b57acf9",7,"Read Recog","CHILL","COLD","Study2","F",17,28,"Study","Study Phase","",1693,"",NA
"568aebfc39a70e000b57acf9",7,"Read Recog","DEATH","BUSINESS","Study2","U",29,13,"Study","Study Phase","",1909,"",NA
"568aebfc39a70e000b57acf9",7,"Read Recog","DOCUMENT","PAPER","Study2","F",12,24,"Study","Study Phase","",2026,"",NA
"568aebfc39a70e000b57acf9",7,"Read Recog","MIRROR","CHILDREN","Study2","U",34,19,"Study","Study Phase","",1198,"",NA
"568aebfc39a70e000b57acf9",7,"Read Recog","LEAGUE","BASEBALL","Study2","F",14,7,"Study","Study Phase","",1735,"",NA
"568aebfc39a70e000b57acf9",7,"Read Recog","BRIDGE","WATER","Study2","F",20,29,"Study","Study Phase","",2010,"",NA
"568aebfc39a70e000b57acf9",7,"Read Recog","ARTERY","BRONZE","Study2","U",33,25,"Study","Study Phase","",2430,"",NA
"568aebfc39a70e000b57acf9",7,"Read Recog","STRONG","ACCIDENT","Study2","U",24,11,"Study","Study Phase","",2318,"",NA
"568aebfc39a70e000b57acf9",7,"Read Recog","BENCH","HORN","Study2","U",28,21,"Study","Study Phase","",1991,"",NA
"568aebfc39a70e000b57acf9",7,"Read Recog","LEASE","TOIL","Study2","U",31,15,"Study","Study Phase","",1740,"",NA
"568aebfc39a70e000b57acf9",7,"Read Recog","CASH","LEG","Study2","U",35,16,"Study","Study Phase","",1490,"",NA
"568aebfc39a70e000b57acf9",7,"Read Recog","KING","VASE","Study2","U",21,34,"Study","Study Phase","",1932,"",NA
"568aebfc39a70e000b57acf9",7,"Read Recog","CHOP","CUT","Study2","F",7,36,"Study","Study Phase","",1782,"",NA
"568aebfc39a70e000b57acf9",7,"Read Recog","ART","WOLF","Study2","U",23,32,"Study","Study Phase","",1555,"",NA
"568aebfc39a70e000b57acf9",7,"Read Recog","CHERRY","RED","Study2","F",10,20,"Study","Study Phase","",1462,"",NA
"568aebfc39a70e000b57acf9",7,"Read Recog","CHISEL","HAMMER","Study2","F",8,27,"Study","Study Phase","",1374,"",NA
"568aebfc39a70e000b57acf9",7,"Read Recog","SICK","HIDE","Study2","U",30,10,"Study","Study Phase","",1463,"",NA
"568aebfc39a70e000b57acf9",7,"Read Recog","SUGAR","RIDDLE","Study2","U",25,23,"Study","Study Phase","",1501,"",NA
"568aebfc39a70e000b57acf9",7,"Read Recog","INCENSE","SMELL","Study2","F",13,9,"Study","Study Phase","",2052,"",NA
"568aebfc39a70e000b57acf9",7,"Read Recog","PUSH","CLUTTER","Study2","U",26,33,"Study","Study Phase","",1785,"",NA
"568aebfc39a70e000b57acf9",7,"Read Recog","ATTIRE","CLOTHES","Study2","F",9,12,"Study","Study Phase","",1148,"",NA
"568aebfc39a70e000b57acf9",7,"Read Recog","WASP","BUG","Study2","F",19,17,"Study","Study Phase","",1157,"",NA
"568aebfc39a70e000b57acf9",7,"Read Recog","HORNET","STING","Study2","F",15,35,"Study","Study Phase","",1139,"",NA
"568aebfc39a70e000b57acf9",7,"Read Recog","HAPPY","CAR","Study2","U",22,18,"Study","Study Phase","",1081,"",NA
"568aebfc39a70e000b57acf9",7,"Read Recog","DIETARY","SACK","Study2","U",27,8,"Study","Study Phase","",1676,"",NA
"568aebfc39a70e000b57acf9",7,"Read Recog","HERD","COW","Study2","F",18,31,"Study","Study Phase","",1111,"",NA
"568aebfc39a70e000b57acf9",7,"Read Recog","BLAZE","FIRE","Study2","F",11,14,"Study","Study Phase","",1367,"",NA
"568aebfc39a70e000b57acf9",7,"Read Recog","FEUD","FIGHT","Study2","F",16,22,"Study","Study Phase","",1200,"",NA
"568aebfc39a70e000b57acf9",7,"Read Recog","CACTUS","PLANT","Study2","F",6,26,"Study","Study Phase","",1549,"",NA
"5891dd715c15e00001583fbc",7,"Read Recog","DIETARY","SACK","Study2","U",27,30,"Study","Study Phase","",3991,"",NA
"5891dd715c15e00001583fbc",7,"Read Recog","BLAZE","FIRE","Study2","F",11,25,"Study","Study Phase","",2083,"",NA
"5891dd715c15e00001583fbc",7,"Read Recog","WASP","BUG","Study2","F",19,12,"Study","Study Phase","",1990,"",NA
"5891dd715c15e00001583fbc",7,"Read Recog","BOTH","OUNCE","Study2","U",32,31,"Study","Study Phase","",2695,"",NA
"5891dd715c15e00001583fbc",7,"Read Recog","HORNET","STING","Study2","F",15,10,"Study","Study Phase","",1296,"",NA
"5891dd715c15e00001583fbc",7,"Read Recog","KING","VASE","Study2","U",21,11,"Study","Study Phase","",1712,"",NA
"5891dd715c15e00001583fbc",7,"Read Recog","SICK","HIDE","Study2","U",30,14,"Study","Study Phase","",3093,"",NA
"5891dd715c15e00001583fbc",7,"Read Recog","CHILL","COLD","Study2","F",17,20,"Study","Study Phase","",2592,"",NA
"5891dd715c15e00001583fbc",7,"Read Recog","STRONG","ACCIDENT","Study2","U",24,26,"Study","Study Phase","",2083,"",NA
"5891dd715c15e00001583fbc",7,"Read Recog","ATTIRE","CLOTHES","Study2","F",9,36,"Study","Study Phase","",1531,"",NA
"5891dd715c15e00001583fbc",7,"Read Recog","BRIDGE","WATER","Study2","F",20,28,"Study","Study Phase","",2180,"",NA
"5891dd715c15e00001583fbc",7,"Read Recog","DOCUMENT","PAPER","Study2","F",12,22,"Study","Study Phase","",1396,"",NA
"5891dd715c15e00001583fbc",7,"Read Recog","ART","WOLF","Study2","U",23,32,"Study","Study Phase","",1907,"",NA
"5891dd715c15e00001583fbc",7,"Read Recog","PUSH","CLUTTER","Study2","U",26,8,"Study","Study Phase","",2042,"",NA
"5891dd715c15e00001583fbc",7,"Read Recog","ARTERY","BRONZE","Study2","U",33,23,"Study","Study Phase","",1781,"",NA
"5891dd715c15e00001583fbc",7,"Read Recog","INCENSE","SMELL","Study2","F",13,9,"Study","Study Phase","",1604,"",NA
"5891dd715c15e00001583fbc",7,"Read Recog","CHOP","CUT","Study2","F",7,24,"Study","Study Phase","",995,"",NA
"5891dd715c15e00001583fbc",7,"Read Recog","CHERRY","RED","Study2","F",10,27,"Study","Study Phase","",865,"",NA
"5891dd715c15e00001583fbc",7,"Read Recog","HAPPY","CAR","Study2","U",22,13,"Study","Study Phase","",1343,"",NA
"5891dd715c15e00001583fbc",7,"Read Recog","HERD","COW","Study2","F",18,18,"Study","Study Phase","",1088,"",NA
"5891dd715c15e00001583fbc",7,"Read Recog","CASH","LEG","Study2","U",35,7,"Study","Study Phase","",1059,"",NA
"5891dd715c15e00001583fbc",7,"Read Recog","CACTUS","PLANT","Study2","F",6,19,"Study","Study Phase","",1043,"",NA
"5891dd715c15e00001583fbc",7,"Read Recog","LEASE","TOIL","Study2","U",31,16,"Study","Study Phase","",1439,"",NA
"5891dd715c15e00001583fbc",7,"Read Recog","CHISEL","HAMMER","Study2","F",8,21,"Study","Study Phase","",1471,"",NA
"5891dd715c15e00001583fbc",7,"Read Recog","MIRROR","CHILDREN","Study2","U",34,17,"Study","Study Phase","",1379,"",NA
"5891dd715c15e00001583fbc",7,"Read Recog","LEAGUE","BASEBALL","Study2","F",14,35,"Study","Study Phase","",1294,"",NA
"5891dd715c15e00001583fbc",7,"Read Recog","BENCH","HORN","Study2","U",28,33,"Study","Study Phase","",1635,"",NA
"5891dd715c15e00001583fbc",7,"Read Recog","SUGAR","RIDDLE","Study2","U",25,15,"Study","Study Phase","",1135,"",NA
"5891dd715c15e00001583fbc",7,"Read Recog","DEATH","BUSINESS","Study2","U",29,29,"Study","Study Phase","",1072,"",NA
"5891dd715c15e00001583fbc",7,"Read Recog","FEUD","FIGHT","Study2","F",16,34,"Study","Study Phase","",1799,"",NA
"59669e237c13bd00018ea020",7,"Read Recog","BENCH","HORN","Study2","U",28,30,"Study","Study Phase","",4380,"",NA
"59669e237c13bd00018ea020",7,"Read Recog","MIRROR","CHILDREN","Study2","U",34,26,"Study","Study Phase","",5909,"",NA
"59669e237c13bd00018ea020",7,"Read Recog","LEASE","TOIL","Study2","U",31,35,"Study","Study Phase","",8088,"",NA
"59669e237c13bd00018ea020",7,"Read Recog","PUSH","CLUTTER","Study2","U",26,8,"Study","Study Phase","",2618,"",NA
"59669e237c13bd00018ea020",7,"Read Recog","WASP","BUG","Study2","F",19,10,"Study","Study Phase","",1641,"",NA
"59669e237c13bd00018ea020",7,"Read Recog","DIETARY","SACK","Study2","U",27,20,"Study","Study Phase","",2084,"",NA
"59669e237c13bd00018ea020",7,"Read Recog","ATTIRE","CLOTHES","Study2","F",9,12,"Study","Study Phase","",1676,"",NA
"59669e237c13bd00018ea020",7,"Read Recog","CHILL","COLD","Study2","F",17,19,"Study","Study Phase","",1235,"",NA
"59669e237c13bd00018ea020",7,"Read Recog","KING","VASE","Study2","U",21,21,"Study","Study Phase","",1166,"",NA
"59669e237c13bd00018ea020",7,"Read Recog","CASH","LEG","Study2","U",35,15,"Study","Study Phase","",1572,"",NA
"59669e237c13bd00018ea020",7,"Read Recog","DEATH","BUSINESS","Study2","U",29,33,"Study","Study Phase","",1898,"",NA
"59669e237c13bd00018ea020",7,"Read Recog","CHOP","CUT","Study2","F",7,14,"Study","Study Phase","",1174,"",NA
"59669e237c13bd00018ea020",7,"Read Recog","HAPPY","CAR","Study2","U",22,31,"Study","Study Phase","",1491,"",NA
"59669e237c13bd00018ea020",7,"Read Recog","DOCUMENT","PAPER","Study2","F",12,36,"Study","Study Phase","",1418,"",NA
"59669e237c13bd00018ea020",7,"Read Recog","SICK","HIDE","Study2","U",30,23,"Study","Study Phase","",1983,"",NA
"59669e237c13bd00018ea020",7,"Read Recog","INCENSE","SMELL","Study2","F",13,9,"Study","Study Phase","",1637,"",NA
"59669e237c13bd00018ea020",7,"Read Recog","CACTUS","PLANT","Study2","F",6,17,"Study","Study Phase","",1130,"",NA
"59669e237c13bd00018ea020",7,"Read Recog","ART","WOLF","Study2","U",23,28,"Study","Study Phase","",1440,"",NA
"59669e237c13bd00018ea020",7,"Read Recog","SUGAR","RIDDLE","Study2","U",25,18,"Study","Study Phase","",2251,"",NA
"59669e237c13bd00018ea020",7,"Read Recog","HERD","COW","Study2","F",18,24,"Study","Study Phase","",1448,"",NA
"59669e237c13bd00018ea020",7,"Read Recog","FEUD","FIGHT","Study2","F",16,16,"Study","Study Phase","",1112,"",NA
"59669e237c13bd00018ea020",7,"Read Recog","ARTERY","BRONZE","Study2","U",33,29,"Study","Study Phase","",1202,"",NA
"59669e237c13bd00018ea020",7,"Read Recog","HORNET","STING","Study2","F",15,32,"Study","Study Phase","",1676,"",NA
"59669e237c13bd00018ea020",7,"Read Recog","CHISEL","HAMMER","Study2","F",8,11,"Study","Study Phase","",1390,"",NA
"59669e237c13bd00018ea020",7,"Read Recog","BLAZE","FIRE","Study2","F",11,7,"Study","Study Phase","",1182,"",NA
"59669e237c13bd00018ea020",7,"Read Recog","STRONG","ACCIDENT","Study2","U",24,34,"Study","Study Phase","",1463,"",NA
"59669e237c13bd00018ea020",7,"Read Recog","BRIDGE","WATER","Study2","F",20,13,"Study","Study Phase","",1098,"",NA
"59669e237c13bd00018ea020",7,"Read Recog","LEAGUE","BASEBALL","Study2","F",14,27,"Study","Study Phase","",1745,"",NA
"59669e237c13bd00018ea020",7,"Read Recog","BOTH","OUNCE","Study2","U",32,25,"Study","Study Phase","",1250,"",NA
"59669e237c13bd00018ea020",7,"Read Recog","CHERRY","RED","Study2","F",10,22,"Study","Study Phase","",1001,"",NA
"5aafd9eff69e940001d88bf4",7,"Read Recog","SICK","HIDE","Study2","U",30,31,"Study","Study Phase","",2662,"",NA
"5aafd9eff69e940001d88bf4",7,"Read Recog","BRIDGE","WATER","Study2","F",20,16,"Study","Study Phase","",2859,"",NA
"5aafd9eff69e940001d88bf4",7,"Read Recog","CHERRY","RED","Study2","F",10,10,"Study","Study Phase","",2022,"",NA
"5aafd9eff69e940001d88bf4",7,"Read Recog","HORNET","STING","Study2","F",15,13,"Study","Study Phase","",2115,"",NA
"5aafd9eff69e940001d88bf4",7,"Read Recog","HAPPY","CAR","Study2","U",22,21,"Study","Study Phase","",2402,"",NA
"5aafd9eff69e940001d88bf4",7,"Read Recog","BENCH","HORN","Study2","U",28,14,"Study","Study Phase","",2655,"",NA
"5aafd9eff69e940001d88bf4",7,"Read Recog","CASH","LEG","Study2","U",35,32,"Study","Study Phase","",2616,"",NA
"5aafd9eff69e940001d88bf4",7,"Read Recog","CHOP","CUT","Study2","F",7,11,"Study","Study Phase","",2675,"",NA
"5aafd9eff69e940001d88bf4",7,"Read Recog","CHILL","COLD","Study2","F",17,35,"Study","Study Phase","",2105,"",NA
"5aafd9eff69e940001d88bf4",7,"Read Recog","SUGAR","RIDDLE","Study2","U",25,33,"Study","Study Phase","",2803,"",NA
"5aafd9eff69e940001d88bf4",7,"Read Recog","DEATH","BUSINESS","Study2","U",29,20,"Study","Study Phase","",1991,"",NA
"5aafd9eff69e940001d88bf4",7,"Read Recog","DOCUMENT","PAPER","Study2","F",12,25,"Study","Study Phase","",2330,"",NA
"5aafd9eff69e940001d88bf4",7,"Read Recog","CHISEL","HAMMER","Study2","F",8,22,"Study","Study Phase","",1870,"",NA
"5aafd9eff69e940001d88bf4",7,"Read Recog","ATTIRE","CLOTHES","Study2","F",9,15,"Study","Study Phase","",2075,"",NA
"5aafd9eff69e940001d88bf4",7,"Read Recog","CACTUS","PLANT","Study2","F",6,24,"Study","Study Phase","",2066,"",NA
"5aafd9eff69e940001d88bf4",7,"Read Recog","ARTERY","BRONZE","Study2","U",33,27,"Study","Study Phase","",3044,"",NA
"5aafd9eff69e940001d88bf4",7,"Read Recog","DIETARY","SACK","Study2","U",27,9,"Study","Study Phase","",2526,"",NA
"5aafd9eff69e940001d88bf4",7,"Read Recog","LEASE","TOIL","Study2","U",31,8,"Study","Study Phase","",2111,"",NA
"5aafd9eff69e940001d88bf4",7,"Read Recog","INCENSE","SMELL","Study2","F",13,30,"Study","Study Phase","",2035,"",NA
"5aafd9eff69e940001d88bf4",7,"Read Recog","WASP","BUG","Study2","F",19,26,"Study","Study Phase","",2360,"",NA
"5aafd9eff69e940001d88bf4",7,"Read Recog","LEAGUE","BASEBALL","Study2","F",14,36,"Study","Study Phase","",1977,"",NA
"5aafd9eff69e940001d88bf4",7,"Read Recog","BOTH","OUNCE","Study2","U",32,28,"Study","Study Phase","",2173,"",NA
"5aafd9eff69e940001d88bf4",7,"Read Recog","KING","VASE","Study2","U",21,34,"Study","Study Phase","",2402,"",NA
"5aafd9eff69e940001d88bf4",7,"Read Recog","STRONG","ACCIDENT","Study2","U",24,23,"Study","Study Phase","",2499,"",NA
"5aafd9eff69e940001d88bf4",7,"Read Recog","HERD","COW","Study2","F",18,18,"Study","Study Phase","",2201,"",NA
"5aafd9eff69e940001d88bf4",7,"Read Recog","ART","WOLF","Study2","U",23,29,"Study","Study Phase","",2135,"",NA
"5aafd9eff69e940001d88bf4",7,"Read Recog","PUSH","CLUTTER","Study2","U",26,19,"Study","Study Phase","",2419,"",NA
"5aafd9eff69e940001d88bf4",7,"Read Recog","MIRROR","CHILDREN","Study2","U",34,7,"Study","Study Phase","",2473,"",NA
"5aafd9eff69e940001d88bf4",7,"Read Recog","BLAZE","FIRE","Study2","F",11,12,"Study","Study Phase","",2544,"",NA
"5aafd9eff69e940001d88bf4",7,"Read Recog","FEUD","FIGHT","Study2","F",16,17,"Study","Study Phase","",2002,"",NA
"5b1efc25bdf4e1000163af46",7,"Read Recog","BRIDGE","WATER","Study2","F",20,14,"Study","Study Phase","",858,"",NA
"5b1efc25bdf4e1000163af46",7,"Read Recog","BOTH","OUNCE","Study2","U",32,16,"Study","Study Phase","",661,"",NA
"5b1efc25bdf4e1000163af46",7,"Read Recog","FEUD","FIGHT","Study2","F",16,9,"Study","Study Phase","",675,"",NA
"5b1efc25bdf4e1000163af46",7,"Read Recog","ATTIRE","CLOTHES","Study2","F",9,7,"Study","Study Phase","",830,"",NA
"5b1efc25bdf4e1000163af46",7,"Read Recog","CHOP","CUT","Study2","F",7,24,"Study","Study Phase","",786,"",NA
"5b1efc25bdf4e1000163af46",7,"Read Recog","CASH","LEG","Study2","U",35,22,"Study","Study Phase","",820,"",NA
"5b1efc25bdf4e1000163af46",7,"Read Recog","HORNET","STING","Study2","F",15,20,"Study","Study Phase","",3608,"",NA
"5b1efc25bdf4e1000163af46",7,"Read Recog","ARTERY","BRONZE","Study2","U",33,10,"Study","Study Phase","",1828,"",NA
"5b1efc25bdf4e1000163af46",7,"Read Recog","PUSH","CLUTTER","Study2","U",26,15,"Study","Study Phase","",927,"",NA
"5b1efc25bdf4e1000163af46",7,"Read Recog","MIRROR","CHILDREN","Study2","U",34,33,"Study","Study Phase","",930,"",NA
"5b1efc25bdf4e1000163af46",7,"Read Recog","CACTUS","PLANT","Study2","F",6,34,"Study","Study Phase","",2942,"",NA
"5b1efc25bdf4e1000163af46",7,"Read Recog","DIETARY","SACK","Study2","U",27,28,"Study","Study Phase","",1882,"",NA
"5b1efc25bdf4e1000163af46",7,"Read Recog","CHISEL","HAMMER","Study2","F",8,11,"Study","Study Phase","",1374,"",NA
"5b1efc25bdf4e1000163af46",7,"Read Recog","CHILL","COLD","Study2","F",17,23,"Study","Study Phase","",1863,"",NA
"5b1efc25bdf4e1000163af46",7,"Read Recog","LEAGUE","BASEBALL","Study2","F",14,27,"Study","Study Phase","",4294,"",NA
"5b1efc25bdf4e1000163af46",7,"Read Recog","CHERRY","RED","Study2","F",10,36,"Study","Study Phase","",1289,"",NA
"5b1efc25bdf4e1000163af46",7,"Read Recog","DOCUMENT","PAPER","Study2","F",12,25,"Study","Study Phase","",1259,"",NA
"5b1efc25bdf4e1000163af46",7,"Read Recog","SUGAR","RIDDLE","Study2","U",25,31,"Study","Study Phase","",3066,"",NA
"5b1efc25bdf4e1000163af46",7,"Read Recog","STRONG","ACCIDENT","Study2","U",24,12,"Study","Study Phase","",1660,"",NA
"5b1efc25bdf4e1000163af46",7,"Read Recog","ART","WOLF","Study2","U",23,13,"Study","Study Phase","",1334,"",NA
"5b1efc25bdf4e1000163af46",7,"Read Recog","KING","VASE","Study2","U",21,26,"Study","Study Phase","",1581,"",NA
"5b1efc25bdf4e1000163af46",7,"Read Recog","DEATH","BUSINESS","Study2","U",29,35,"Study","Study Phase","",1230,"",NA
"5b1efc25bdf4e1000163af46",7,"Read Recog","INCENSE","SMELL","Study2","F",13,8,"Study","Study Phase","",944,"",NA
"5b1efc25bdf4e1000163af46",7,"Read Recog","LEASE","TOIL","Study2","U",31,29,"Study","Study Phase","",1182,"",NA
"5b1efc25bdf4e1000163af46",7,"Read Recog","BENCH","HORN","Study2","U",28,17,"Study","Study Phase","",1232,"",NA
"5b1efc25bdf4e1000163af46",7,"Read Recog","BLAZE","FIRE","Study2","F",11,19,"Study","Study Phase","",1208,"",NA
"5b1efc25bdf4e1000163af46",7,"Read Recog","HAPPY","CAR","Study2","U",22,30,"Study","Study Phase","",1070,"",NA
"5b1efc25bdf4e1000163af46",7,"Read Recog","HERD","COW","Study2","F",18,18,"Study","Study Phase","",1120,"",NA
"5b1efc25bdf4e1000163af46",7,"Read Recog","WASP","BUG","Study2","F",19,21,"Study","Study Phase","",1099,"",NA
"5b1efc25bdf4e1000163af46",7,"Read Recog","SICK","HIDE","Study2","U",30,32,"Study","Study Phase","",1149,"",NA
"5b421b9ac2e3810001763252",7,"Read Recog","ARTERY","BRONZE","Study2","U",33,35,"Study","Study Phase","",4151,"",NA
"5b421b9ac2e3810001763252",7,"Read Recog","STRONG","ACCIDENT","Study2","U",24,11,"Study","Study Phase","",4491,"",NA
"5b421b9ac2e3810001763252",7,"Read Recog","DEATH","BUSINESS","Study2","U",29,28,"Study","Study Phase","",4990,"",NA
"5b421b9ac2e3810001763252",7,"Read Recog","HERD","COW","Study2","F",18,17,"Study","Study Phase","",3372,"",NA
"5b421b9ac2e3810001763252",7,"Read Recog","SUGAR","RIDDLE","Study2","U",25,9,"Study","Study Phase","",4274,"",NA
"5b421b9ac2e3810001763252",7,"Read Recog","CHILL","COLD","Study2","F",17,20,"Study","Study Phase","",4146,"",NA
"5b421b9ac2e3810001763252",7,"Read Recog","BENCH","HORN","Study2","U",28,23,"Study","Study Phase","",4481,"",NA
"5b421b9ac2e3810001763252",7,"Read Recog","SICK","HIDE","Study2","U",30,16,"Study","Study Phase","",4014,"",NA
"5b421b9ac2e3810001763252",7,"Read Recog","ATTIRE","CLOTHES","Study2","F",9,33,"Study","Study Phase","",4047,"",NA
"5b421b9ac2e3810001763252",7,"Read Recog","CHISEL","HAMMER","Study2","F",8,14,"Study","Study Phase","",2621,"",NA
"5b421b9ac2e3810001763252",7,"Read Recog","INCENSE","SMELL","Study2","F",13,7,"Study","Study Phase","",3998,"",NA
"5b421b9ac2e3810001763252",7,"Read Recog","LEAGUE","BASEBALL","Study2","F",14,21,"Study","Study Phase","",8849,"",NA
"5b421b9ac2e3810001763252",7,"Read Recog","BRIDGE","WATER","Study2","F",20,32,"Study","Study Phase","",3003,"",NA
"5b421b9ac2e3810001763252",7,"Read Recog","CHOP","CUT","Study2","F",7,36,"Study","Study Phase","",3152,"",NA
"5b421b9ac2e3810001763252",7,"Read Recog","HAPPY","CAR","Study2","U",22,18,"Study","Study Phase","",3851,"",NA
"5b421b9ac2e3810001763252",7,"Read Recog","BLAZE","FIRE","Study2","F",11,29,"Study","Study Phase","",4109,"",NA
"5b421b9ac2e3810001763252",7,"Read Recog","FEUD","FIGHT","Study2","F",16,24,"Study","Study Phase","",4063,"",NA
"5b421b9ac2e3810001763252",7,"Read Recog","WASP","BUG","Study2","F",19,10,"Study","Study Phase","",3349,"",NA
"5b421b9ac2e3810001763252",7,"Read Recog","LEASE","TOIL","Study2","U",31,31,"Study","Study Phase","",3592,"",NA
"5b421b9ac2e3810001763252",7,"Read Recog","ART","WOLF","Study2","U",23,15,"Study","Study Phase","",3534,"",NA
"5b421b9ac2e3810001763252",7,"Read Recog","CASH","LEG","Study2","U",35,25,"Study","Study Phase","",3341,"",NA
"5b421b9ac2e3810001763252",7,"Read Recog","KING","VASE","Study2","U",21,34,"Study","Study Phase","",3556,"",NA
"5b421b9ac2e3810001763252",7,"Read Recog","HORNET","STING","Study2","F",15,8,"Study","Study Phase","",3887,"",NA
"5b421b9ac2e3810001763252",7,"Read Recog","DIETARY","SACK","Study2","U",27,27,"Study","Study Phase","",3566,"",NA
"5b421b9ac2e3810001763252",7,"Read Recog","CACTUS","PLANT","Study2","F",6,19,"Study","Study Phase","",3829,"",NA
"5b421b9ac2e3810001763252",7,"Read Recog","DOCUMENT","PAPER","Study2","F",12,22,"Study","Study Phase","",4268,"",NA
"5b421b9ac2e3810001763252",7,"Read Recog","CHERRY","RED","Study2","F",10,26,"Study","Study Phase","",2998,"",NA
"5b421b9ac2e3810001763252",7,"Read Recog","BOTH","OUNCE","Study2","U",32,12,"Study","Study Phase","",3206,"",NA
"5b421b9ac2e3810001763252",7,"Read Recog","PUSH","CLUTTER","Study2","U",26,30,"Study","Study Phase","",3303,"",NA
"5b421b9ac2e3810001763252",7,"Read Recog","MIRROR","CHILDREN","Study2","U",34,13,"Study","Study Phase","",4495,"",NA
"5bda523e0bde3200017055ca",5,"Read Recog","GIVE","STEAK","Study1","U",23,32,"Study","Study Phase","",2534,"",NA
"5bda523e0bde3200017055ca",5,"Read Recog","MEAT","KEYS","Study1","U",26,28,"Study","Study Phase","",1217,"",NA
"5bda523e0bde3200017055ca",5,"Read Recog","CAKE","HAND","Study1","U",34,7,"Study","Study Phase","",963,"",NA
"5bda523e0bde3200017055ca",5,"Read Recog","FUZZY","BANG","Study1","U",35,12,"Study","Study Phase","",1048,"",NA
"5bda523e0bde3200017055ca",5,"Read Recog","TUNA","FISH","Study1","F",20,27,"Study","Study Phase","",989,"",NA
"5bda523e0bde3200017055ca",5,"Read Recog","WORD","SENTENCE","Study1","F",12,36,"Study","Study Phase","",962,"",NA
"5bda523e0bde3200017055ca",5,"Read Recog","SIGN","TICK","Study1","U",32,29,"Study","Study Phase","",2124,"",NA
"5bda523e0bde3200017055ca",5,"Read Recog","MIRROR","MAROON","Study1","U",21,21,"Study","Study Phase","",925,"",NA
"5bda523e0bde3200017055ca",5,"Read Recog","TEMPERATURE","MORNING","Study1","U",33,16,"Study","Study Phase","",1078,"",NA
"5bda523e0bde3200017055ca",5,"Read Recog","SOON","BELT","Study1","U",31,15,"Study","Study Phase","",4112,"",NA
"5bda523e0bde3200017055ca",5,"Read Recog","WAGE","MONEY","Study1","F",7,23,"Study","Study Phase","",1305,"",NA
"5bda523e0bde3200017055ca",5,"Read Recog","CRACKLE","ELECTION","Study1","U",24,33,"Study","Study Phase","",907,"",NA
"5bda523e0bde3200017055ca",5,"Read Recog","SWAN","BIRD","Study1","F",11,35,"Study","Study Phase","",931,"",NA
"5bda523e0bde3200017055ca",5,"Read Recog","ORCHID","FLOWER","Study1","F",19,8,"Study","Study Phase","",1219,"",NA
"5bda523e0bde3200017055ca",5,"Read Recog","VEHICLE","CHARM","Study1","U",25,18,"Study","Study Phase","",897,"",NA
"5bda523e0bde3200017055ca",5,"Read Recog","HORSE","COW","Study1","F",9,25,"Study","Study Phase","",794,"",NA
"5bda523e0bde3200017055ca",5,"Read Recog","SHELL","SHAKE","Study1","U",28,11,"Study","Study Phase","",880,"",NA
"5bda523e0bde3200017055ca",5,"Read Recog","AFFECTION","LOVE","Study1","F",16,26,"Study","Study Phase","",889,"",NA
"5bda523e0bde3200017055ca",5,"Read Recog","STRETCH","CLOTH","Study1","U",22,24,"Study","Study Phase","",864,"",NA
"5bda523e0bde3200017055ca",5,"Read Recog","HYGIENE","CLEAN","Study1","F",13,34,"Study","Study Phase","",864,"",NA
"5bda523e0bde3200017055ca",5,"Read Recog","NAP","SLEEP","Study1","F",14,9,"Study","Study Phase","",1784,"",NA
"5bda523e0bde3200017055ca",5,"Read Recog","ROOT","PLANT","Study1","F",10,30,"Study","Study Phase","",893,"",NA
"5bda523e0bde3200017055ca",5,"Read Recog","LISTEN","FICTION","Study1","U",29,20,"Study","Study Phase","",2823,"",NA
"5bda523e0bde3200017055ca",5,"Read Recog","LITTER","TRASH","Study1","F",6,10,"Study","Study Phase","",872,"",NA
"5bda523e0bde3200017055ca",5,"Read Recog","SCALP","HEAD","Study1","F",8,22,"Study","Study Phase","",796,"",NA
"5bda523e0bde3200017055ca",5,"Read Recog","MULE","DONKEY","Study1","F",15,13,"Study","Study Phase","",789,"",NA
"5bda523e0bde3200017055ca",5,"Read Recog","CREDIT","CARD","Study1","F",18,14,"Study","Study Phase","",677,"",NA
"5bda523e0bde3200017055ca",5,"Read Recog","SIP","DRINK","Study1","F",17,31,"Study","Study Phase","",914,"",NA
"5bda523e0bde3200017055ca",5,"Read Recog","KEYS","ROD","Study1","U",30,17,"Study","Study Phase","",864,"",NA
"5bda523e0bde3200017055ca",5,"Read Recog","MAZE","PHONE","Study1","U",27,19,"Study","Study Phase","",928,"",NA
"5bddcde7072d980001a8a9cf",7,"Read Recog","INCENSE","SMELL","Study2","F",13,34,"Study","Study Phase","",2436,"",NA
"5bddcde7072d980001a8a9cf",7,"Read Recog","BLAZE","FIRE","Study2","F",11,32,"Study","Study Phase","",1883,"",NA
"5bddcde7072d980001a8a9cf",7,"Read Recog","CASH","LEG","Study2","U",35,33,"Study","Study Phase","",2791,"",NA
"5bddcde7072d980001a8a9cf",7,"Read Recog","CHISEL","HAMMER","Study2","F",8,26,"Study","Study Phase","",2678,"",NA
"5bddcde7072d980001a8a9cf",7,"Read Recog","MIRROR","CHILDREN","Study2","U",34,28,"Study","Study Phase","",1526,"",NA
"5bddcde7072d980001a8a9cf",7,"Read Recog","STRONG","ACCIDENT","Study2","U",24,14,"Study","Study Phase","",1359,"",NA
"5bddcde7072d980001a8a9cf",7,"Read Recog","DEATH","BUSINESS","Study2","U",29,9,"Study","Study Phase","",2273,"",NA
"5bddcde7072d980001a8a9cf",7,"Read Recog","WASP","BUG","Study2","F",19,11,"Study","Study Phase","",2404,"",NA
"5bddcde7072d980001a8a9cf",7,"Read Recog","DOCUMENT","PAPER","Study2","F",12,30,"Study","Study Phase","",1684,"",NA
"5bddcde7072d980001a8a9cf",7,"Read Recog","ART","WOLF","Study2","U",23,25,"Study","Study Phase","",1656,"",NA
"5bddcde7072d980001a8a9cf",7,"Read Recog","CHILL","COLD","Study2","F",17,21,"Study","Study Phase","",1393,"",NA
"5bddcde7072d980001a8a9cf",7,"Read Recog","SUGAR","RIDDLE","Study2","U",25,10,"Study","Study Phase","",1626,"",NA
"5bddcde7072d980001a8a9cf",7,"Read Recog","CACTUS","PLANT","Study2","F",6,18,"Study","Study Phase","",1275,"",NA
"5bddcde7072d980001a8a9cf",7,"Read Recog","SICK","HIDE","Study2","U",30,19,"Study","Study Phase","",1540,"",NA
"5bddcde7072d980001a8a9cf",7,"Read Recog","HAPPY","CAR","Study2","U",22,29,"Study","Study Phase","",1264,"",NA
"5bddcde7072d980001a8a9cf",7,"Read Recog","CHOP","CUT","Study2","F",7,24,"Study","Study Phase","",1701,"",NA
"5bddcde7072d980001a8a9cf",7,"Read Recog","CHERRY","RED","Study2","F",10,17,"Study","Study Phase","",1025,"",NA
"5bddcde7072d980001a8a9cf",7,"Read Recog","BENCH","HORN","Study2","U",28,20,"Study","Study Phase","",1426,"",NA
"5bddcde7072d980001a8a9cf",7,"Read Recog","LEASE","TOIL","Study2","U",31,22,"Study","Study Phase","",1718,"",NA
"5bddcde7072d980001a8a9cf",7,"Read Recog","PUSH","CLUTTER","Study2","U",26,35,"Study","Study Phase","",1087,"",NA
"5bddcde7072d980001a8a9cf",7,"Read Recog","BRIDGE","WATER","Study2","F",20,13,"Study","Study Phase","",1580,"",NA
"5bddcde7072d980001a8a9cf",7,"Read Recog","HERD","COW","Study2","F",18,7,"Study","Study Phase","",1528,"",NA
"5bddcde7072d980001a8a9cf",7,"Read Recog","KING","VASE","Study2","U",21,36,"Study","Study Phase","",1251,"",NA
"5bddcde7072d980001a8a9cf",7,"Read Recog","ARTERY","BRONZE","Study2","U",33,31,"Study","Study Phase","",2279,"",NA
"5bddcde7072d980001a8a9cf",7,"Read Recog","DIETARY","SACK","Study2","U",27,8,"Study","Study Phase","",1480,"",NA
"5bddcde7072d980001a8a9cf",7,"Read Recog","ATTIRE","CLOTHES","Study2","F",9,12,"Study","Study Phase","",1364,"",NA
"5bddcde7072d980001a8a9cf",7,"Read Recog","BOTH","OUNCE","Study2","U",32,23,"Study","Study Phase","",1895,"",NA
"5bddcde7072d980001a8a9cf",7,"Read Recog","FEUD","FIGHT","Study2","F",16,27,"Study","Study Phase","",2583,"",NA
"5bddcde7072d980001a8a9cf",7,"Read Recog","LEAGUE","BASEBALL","Study2","F",14,15,"Study","Study Phase","",1931,"",NA
"5bddcde7072d980001a8a9cf",7,"Read Recog","HORNET","STING","Study2","F",15,16,"Study","Study Phase","",1243,"",NA
"5c0873675b32d500012e3f2c",7,"Read Recog","HERD","COW","Study2","F",18,10,"Study","Study Phase","",2749,"",NA
"5c0873675b32d500012e3f2c",7,"Read Recog","LEASE","TOIL","Study2","U",31,17,"Study","Study Phase","",8774,"",NA
"5c0873675b32d500012e3f2c",7,"Read Recog","WASP","BUG","Study2","F",19,22,"Study","Study Phase","",2360,"",NA
"5c0873675b32d500012e3f2c",7,"Read Recog","DOCUMENT","PAPER","Study2","F",12,13,"Study","Study Phase","",2398,"",NA
"5c0873675b32d500012e3f2c",7,"Read Recog","DIETARY","SACK","Study2","U",27,15,"Study","Study Phase","",5937,"",NA
"5c0873675b32d500012e3f2c",7,"Read Recog","ART","WOLF","Study2","U",23,16,"Study","Study Phase","",2250,"",NA
"5c0873675b32d500012e3f2c",7,"Read Recog","INCENSE","SMELL","Study2","F",13,27,"Study","Study Phase","",2600,"",NA
"5c0873675b32d500012e3f2c",7,"Read Recog","CASH","LEG","Study2","U",35,19,"Study","Study Phase","",2398,"",NA
"5c0873675b32d500012e3f2c",7,"Read Recog","CHERRY","RED","Study2","F",10,25,"Study","Study Phase","",3428,"",NA
"5c0873675b32d500012e3f2c",7,"Read Recog","HORNET","STING","Study2","F",15,18,"Study","Study Phase","",3572,"",NA
"5c0873675b32d500012e3f2c",7,"Read Recog","PUSH","CLUTTER","Study2","U",26,34,"Study","Study Phase","",7030,"",NA
"5c0873675b32d500012e3f2c",7,"Read Recog","LEAGUE","BASEBALL","Study2","F",14,31,"Study","Study Phase","",3438,"",NA
"5c0873675b32d500012e3f2c",7,"Read Recog","DEATH","BUSINESS","Study2","U",29,26,"Study","Study Phase","",5246,"",NA
"5c0873675b32d500012e3f2c",7,"Read Recog","BRIDGE","WATER","Study2","F",20,24,"Study","Study Phase","",4524,"",NA
"5c0873675b32d500012e3f2c",7,"Read Recog","ARTERY","BRONZE","Study2","U",33,7,"Study","Study Phase","",6004,"",NA
"5c0873675b32d500012e3f2c",7,"Read Recog","KING","VASE","Study2","U",21,36,"Study","Study Phase","",9025,"",NA
"5c0873675b32d500012e3f2c",7,"Read Recog","ATTIRE","CLOTHES","Study2","F",9,8,"Study","Study Phase","",3586,"",NA
"5c0873675b32d500012e3f2c",7,"Read Recog","CHILL","COLD","Study2","F",17,32,"Study","Study Phase","",2627,"",NA
"5c0873675b32d500012e3f2c",7,"Read Recog","FEUD","FIGHT","Study2","F",16,29,"Study","Study Phase","",2207,"",NA
"5c0873675b32d500012e3f2c",7,"Read Recog","SUGAR","RIDDLE","Study2","U",25,23,"Study","Study Phase","",5144,"",NA
"5c0873675b32d500012e3f2c",7,"Read Recog","CHOP","CUT","Study2","F",7,28,"Study","Study Phase","",3339,"",NA
"5c0873675b32d500012e3f2c",7,"Read Recog","MIRROR","CHILDREN","Study2","U",34,14,"Study","Study Phase","",6057,"",NA
"5c0873675b32d500012e3f2c",7,"Read Recog","BLAZE","FIRE","Study2","F",11,11,"Study","Study Phase","",4037,"",NA
"5c0873675b32d500012e3f2c",7,"Read Recog","BOTH","OUNCE","Study2","U",32,35,"Study","Study Phase","",13016,"",NA
"5c0873675b32d500012e3f2c",7,"Read Recog","BENCH","HORN","Study2","U",28,30,"Study","Study Phase","",10023,"",NA
"5c0873675b32d500012e3f2c",7,"Read Recog","CHISEL","HAMMER","Study2","F",8,33,"Study","Study Phase","",3197,"",NA
"5c0873675b32d500012e3f2c",7,"Read Recog","STRONG","ACCIDENT","Study2","U",24,12,"Study","Study Phase","",4222,"",NA
"5c0873675b32d500012e3f2c",7,"Read Recog","CACTUS","PLANT","Study2","F",6,21,"Study","Study Phase","",2613,"",NA
"5c0873675b32d500012e3f2c",7,"Read Recog","HAPPY","CAR","Study2","U",22,9,"Study","Study Phase","",6498,"",NA
"5c0873675b32d500012e3f2c",7,"Read Recog","SICK","HIDE","Study2","U",30,20,"Study","Study Phase","",3512,"",NA
"5c36415362073c000166c847",5,"Read Recog","AFFECTION","LOVE","Study1","F",16,36,"Study","Study Phase","",1336,"",NA
"5c36415362073c000166c847",5,"Read Recog","WAGE","MONEY","Study1","F",7,8,"Study","Study Phase","",1055,"",NA
"5c36415362073c000166c847",5,"Read Recog","HORSE","COW","Study1","F",9,29,"Study","Study Phase","",3891,"",NA
"5c36415362073c000166c847",5,"Read Recog","MEAT","KEYS","Study1","U",26,27,"Study","Study Phase","",1702,"",NA
"5c36415362073c000166c847",5,"Read Recog","TEMPERATURE","MORNING","Study1","U",33,22,"Study","Study Phase","",12756,"",NA
"5c36415362073c000166c847",5,"Read Recog","ROOT","PLANT","Study1","F",10,20,"Study","Study Phase","",3240,"",NA
"5c36415362073c000166c847",5,"Read Recog","CAKE","HAND","Study1","U",34,16,"Study","Study Phase","",9282,"",NA
"5c36415362073c000166c847",5,"Read Recog","TUNA","FISH","Study1","F",20,12,"Study","Study Phase","",1357,"",NA
"5c36415362073c000166c847",5,"Read Recog","FUZZY","BANG","Study1","U",35,30,"Study","Study Phase","",7786,"",NA
"5c36415362073c000166c847",5,"Read Recog","STRETCH","CLOTH","Study1","U",22,32,"Study","Study Phase","",3028,"",NA
"5c36415362073c000166c847",5,"Read Recog","NAP","SLEEP","Study1","F",14,14,"Study","Study Phase","",1835,"",NA
"5c36415362073c000166c847",5,"Read Recog","MULE","DONKEY","Study1","F",15,28,"Study","Study Phase","",1069,"",NA
"5c36415362073c000166c847",5,"Read Recog","SCALP","HEAD","Study1","F",8,25,"Study","Study Phase","",1902,"",NA
"5c36415362073c000166c847",5,"Read Recog","HYGIENE","CLEAN","Study1","F",13,35,"Study","Study Phase","",2030,"",NA
"5c36415362073c000166c847",5,"Read Recog","SIGN","TICK","Study1","U",32,34,"Study","Study Phase","",2973,"",NA
"5c36415362073c000166c847",5,"Read Recog","MIRROR","MAROON","Study1","U",21,17,"Study","Study Phase","",1235,"",NA
"5c36415362073c000166c847",5,"Read Recog","SIP","DRINK","Study1","F",17,19,"Study","Study Phase","",3144,"",NA
"5c36415362073c000166c847",5,"Read Recog","SHELL","SHAKE","Study1","U",28,24,"Study","Study Phase","",2817,"",NA
"5c36415362073c000166c847",5,"Read Recog","SOON","BELT","Study1","U",31,7,"Study","Study Phase","",4061,"",NA
"5c36415362073c000166c847",5,"Read Recog","VEHICLE","CHARM","Study1","U",25,15,"Study","Study Phase","",4692,"",NA
"5c36415362073c000166c847",5,"Read Recog","WORD","SENTENCE","Study1","F",12,31,"Study","Study Phase","",1483,"",NA
"5c36415362073c000166c847",5,"Read Recog","KEYS","ROD","Study1","U",30,10,"Study","Study Phase","",9123,"",NA
"5c36415362073c000166c847",5,"Read Recog","GIVE","STEAK","Study1","U",23,18,"Study","Study Phase","",11956,"",NA
"5c36415362073c000166c847",5,"Read Recog","CREDIT","CARD","Study1","F",18,23,"Study","Study Phase","",1154,"",NA
"5c36415362073c000166c847",5,"Read Recog","LITTER","TRASH","Study1","F",6,33,"Study","Study Phase","",1195,"",NA
"5c36415362073c000166c847",5,"Read Recog","ORCHID","FLOWER","Study1","F",19,21,"Study","Study Phase","",1429,"",NA
"5c36415362073c000166c847",5,"Read Recog","CRACKLE","ELECTION","Study1","U",24,11,"Study","Study Phase","",16854,"",NA
"5c36415362073c000166c847",5,"Read Recog","LISTEN","FICTION","Study1","U",29,13,"Study","Study Phase","",2049,"",NA
"5c36415362073c000166c847",5,"Read Recog","SWAN","BIRD","Study1","F",11,26,"Study","Study Phase","",1282,"",NA
"5c36415362073c000166c847",5,"Read Recog","MAZE","PHONE","Study1","U",27,9,"Study","Study Phase","",7023,"",NA
"5c5409f49fcbc40001dc0b4d",5,"Read Recog","VEHICLE","CHARM","Study1","U",25,12,"Study","Study Phase","",3326,"",NA
"5c5409f49fcbc40001dc0b4d",5,"Read Recog","CREDIT","CARD","Study1","F",18,31,"Study","Study Phase","",1417,"",NA
"5c5409f49fcbc40001dc0b4d",5,"Read Recog","SHELL","SHAKE","Study1","U",28,22,"Study","Study Phase","",3000,"",NA
"5c5409f49fcbc40001dc0b4d",5,"Read Recog","CRACKLE","ELECTION","Study1","U",24,35,"Study","Study Phase","",3182,"",NA
"5c5409f49fcbc40001dc0b4d",5,"Read Recog","NAP","SLEEP","Study1","F",14,34,"Study","Study Phase","",1833,"",NA
"5c5409f49fcbc40001dc0b4d",5,"Read Recog","AFFECTION","LOVE","Study1","F",16,25,"Study","Study Phase","",3344,"",NA
"5c5409f49fcbc40001dc0b4d",5,"Read Recog","SWAN","BIRD","Study1","F",11,27,"Study","Study Phase","",2675,"",NA
"5c5409f49fcbc40001dc0b4d",5,"Read Recog","SOON","BELT","Study1","U",31,14,"Study","Study Phase","",3699,"",NA
"5c5409f49fcbc40001dc0b4d",5,"Read Recog","SIGN","TICK","Study1","U",32,10,"Study","Study Phase","",3327,"",NA
"5c5409f49fcbc40001dc0b4d",5,"Read Recog","ORCHID","FLOWER","Study1","F",19,20,"Study","Study Phase","",2920,"",NA
"5c5409f49fcbc40001dc0b4d",5,"Read Recog","SIP","DRINK","Study1","F",17,28,"Study","Study Phase","",1423,"",NA
"5c5409f49fcbc40001dc0b4d",5,"Read Recog","CAKE","HAND","Study1","U",34,29,"Study","Study Phase","",1730,"",NA
"5c5409f49fcbc40001dc0b4d",5,"Read Recog","ROOT","PLANT","Study1","F",10,15,"Study","Study Phase","",1916,"",NA
"5c5409f49fcbc40001dc0b4d",5,"Read Recog","TUNA","FISH","Study1","F",20,21,"Study","Study Phase","",2014,"",NA
"5c5409f49fcbc40001dc0b4d",5,"Read Recog","KEYS","ROD","Study1","U",30,8,"Study","Study Phase","",2136,"",NA
"5c5409f49fcbc40001dc0b4d",5,"Read Recog","MAZE","PHONE","Study1","U",27,30,"Study","Study Phase","",2363,"",NA
"5c5409f49fcbc40001dc0b4d",5,"Read Recog","WAGE","MONEY","Study1","F",7,13,"Study","Study Phase","",1465,"",NA
"5c5409f49fcbc40001dc0b4d",5,"Read Recog","TEMPERATURE","MORNING","Study1","U",33,16,"Study","Study Phase","",1768,"",NA
"5c5409f49fcbc40001dc0b4d",5,"Read Recog","SCALP","HEAD","Study1","F",8,26,"Study","Study Phase","",1329,"",NA
"5c5409f49fcbc40001dc0b4d",5,"Read Recog","HYGIENE","CLEAN","Study1","F",13,7,"Study","Study Phase","",1809,"",NA
"5c5409f49fcbc40001dc0b4d",5,"Read Recog","LISTEN","FICTION","Study1","U",29,18,"Study","Study Phase","",1960,"",NA
"5c5409f49fcbc40001dc0b4d",5,"Read Recog","HORSE","COW","Study1","F",9,24,"Study","Study Phase","",1371,"",NA
"5c5409f49fcbc40001dc0b4d",5,"Read Recog","LITTER","TRASH","Study1","F",6,9,"Study","Study Phase","",929,"",NA
"5c5409f49fcbc40001dc0b4d",5,"Read Recog","STRETCH","CLOTH","Study1","U",22,36,"Study","Study Phase","",1084,"",NA
"5c5409f49fcbc40001dc0b4d",5,"Read Recog","MIRROR","MAROON","Study1","U",21,17,"Study","Study Phase","",1569,"",NA
"5c5409f49fcbc40001dc0b4d",5,"Read Recog","GIVE","STEAK","Study1","U",23,32,"Study","Study Phase","",1745,"",NA
"5c5409f49fcbc40001dc0b4d",5,"Read Recog","MULE","DONKEY","Study1","F",15,33,"Study","Study Phase","",1053,"",NA
"5c5409f49fcbc40001dc0b4d",5,"Read Recog","MEAT","KEYS","Study1","U",26,19,"Study","Study Phase","",1235,"",NA
"5c5409f49fcbc40001dc0b4d",5,"Read Recog","WORD","SENTENCE","Study1","F",12,11,"Study","Study Phase","",1381,"",NA
"5c5409f49fcbc40001dc0b4d",5,"Read Recog","FUZZY","BANG","Study1","U",35,23,"Study","Study Phase","",2771,"",NA
"5c635a08e30ff200016badb9",5,"Read Recog","VEHICLE","CHARM","Study1","U",25,15,"Study","Study Phase","",3534,"",NA
"5c635a08e30ff200016badb9",5,"Read Recog","NAP","SLEEP","Study1","F",14,19,"Study","Study Phase","",3212,"",NA
"5c635a08e30ff200016badb9",5,"Read Recog","HORSE","COW","Study1","F",9,25,"Study","Study Phase","",3446,"",NA
"5c635a08e30ff200016badb9",5,"Read Recog","SIGN","TICK","Study1","U",32,26,"Study","Study Phase","",2496,"",NA
"5c635a08e30ff200016badb9",5,"Read Recog","MIRROR","MAROON","Study1","U",21,34,"Study","Study Phase","",3102,"",NA
"5c635a08e30ff200016badb9",5,"Read Recog","MULE","DONKEY","Study1","F",15,31,"Study","Study Phase","",2485,"",NA
"5c635a08e30ff200016badb9",5,"Read Recog","CRACKLE","ELECTION","Study1","U",24,27,"Study","Study Phase","",2017,"",NA
"5c635a08e30ff200016badb9",5,"Read Recog","SWAN","BIRD","Study1","F",11,20,"Study","Study Phase","",2385,"",NA
"5c635a08e30ff200016badb9",5,"Read Recog","CAKE","HAND","Study1","U",34,13,"Study","Study Phase","",2420,"",NA
"5c635a08e30ff200016badb9",5,"Read Recog","SCALP","HEAD","Study1","F",8,30,"Study","Study Phase","",2253,"",NA
"5c635a08e30ff200016badb9",5,"Read Recog","ROOT","PLANT","Study1","F",10,18,"Study","Study Phase","",2916,"",NA
"5c635a08e30ff200016badb9",5,"Read Recog","SIP","DRINK","Study1","F",17,21,"Study","Study Phase","",3235,"",NA
"5c635a08e30ff200016badb9",5,"Read Recog","TEMPERATURE","MORNING","Study1","U",33,11,"Study","Study Phase","",151,"",NA
"5c635a08e30ff200016badb9",5,"Read Recog","LISTEN","FICTION","Study1","U",29,7,"Study","Study Phase","",3423,"",NA
"5c635a08e30ff200016badb9",5,"Read Recog","SOON","BELT","Study1","U",31,33,"Study","Study Phase","",3937,"",NA
"5c635a08e30ff200016badb9",5,"Read Recog","CREDIT","CARD","Study1","F",18,22,"Study","Study Phase","",3573,"",NA
"5c635a08e30ff200016badb9",5,"Read Recog","FUZZY","BANG","Study1","U",35,35,"Study","Study Phase","",5376,"",NA
"5c635a08e30ff200016badb9",5,"Read Recog","GIVE","STEAK","Study1","U",23,9,"Study","Study Phase","",3626,"",NA
"5c635a08e30ff200016badb9",5,"Read Recog","WAGE","MONEY","Study1","F",7,24,"Study","Study Phase","",4672,"",NA
"5c635a08e30ff200016badb9",5,"Read Recog","TUNA","FISH","Study1","F",20,28,"Study","Study Phase","",2788,"",NA
"5c635a08e30ff200016badb9",5,"Read Recog","HYGIENE","CLEAN","Study1","F",13,23,"Study","Study Phase","",3500,"",NA
"5c635a08e30ff200016badb9",5,"Read Recog","STRETCH","CLOTH","Study1","U",22,16,"Study","Study Phase","",5963,"",NA
"5c635a08e30ff200016badb9",5,"Read Recog","MEAT","KEYS","Study1","U",26,29,"Study","Study Phase","",1886,"",NA
"5c635a08e30ff200016badb9",5,"Read Recog","ORCHID","FLOWER","Study1","F",19,8,"Study","Study Phase","",4257,"",NA
"5c635a08e30ff200016badb9",5,"Read Recog","KEYS","ROD","Study1","U",30,17,"Study","Study Phase","",2979,"",NA
"5c635a08e30ff200016badb9",5,"Read Recog","MAZE","PHONE","Study1","U",27,12,"Study","Study Phase","",3544,"",NA
"5c635a08e30ff200016badb9",5,"Read Recog","WORD","SENTENCE","Study1","F",12,36,"Study","Study Phase","",4784,"",NA
"5c635a08e30ff200016badb9",5,"Read Recog","SHELL","SHAKE","Study1","U",28,14,"Study","Study Phase","",6170,"",NA
"5c635a08e30ff200016badb9",5,"Read Recog","AFFECTION","LOVE","Study1","F",16,10,"Study","Study Phase","",3775,"",NA
"5c635a08e30ff200016badb9",5,"Read Recog","LITTER","TRASH","Study1","F",6,32,"Study","Study Phase","",6663,"",NA
"5c93073250e4fb0001f7907b",5,"Read Recog","TUNA","FISH","Study1","F",20,10,"Study","Study Phase","",847,"",NA
"5c93073250e4fb0001f7907b",5,"Read Recog","MAZE","PHONE","Study1","U",27,14,"Study","Study Phase","",578,"",NA
"5c93073250e4fb0001f7907b",5,"Read Recog","SHELL","SHAKE","Study1","U",28,24,"Study","Study Phase","",654,"",NA
"5c93073250e4fb0001f7907b",5,"Read Recog","WORD","SENTENCE","Study1","F",12,21,"Study","Study Phase","",721,"",NA
"5c93073250e4fb0001f7907b",5,"Read Recog","SWAN","BIRD","Study1","F",11,23,"Study","Study Phase","",598,"",NA
"5c93073250e4fb0001f7907b",5,"Read Recog","CREDIT","CARD","Study1","F",18,32,"Study","Study Phase","",607,"",NA
"5c93073250e4fb0001f7907b",5,"Read Recog","SIP","DRINK","Study1","F",17,18,"Study","Study Phase","",713,"",NA
"5c93073250e4fb0001f7907b",5,"Read Recog","ROOT","PLANT","Study1","F",10,11,"Study","Study Phase","",655,"",NA
"5c93073250e4fb0001f7907b",5,"Read Recog","MULE","DONKEY","Study1","F",15,27,"Study","Study Phase","",650,"",NA
"5c93073250e4fb0001f7907b",5,"Read Recog","LITTER","TRASH","Study1","F",6,22,"Study","Study Phase","",707,"",NA
"5c93073250e4fb0001f7907b",5,"Read Recog","KEYS","ROD","Study1","U",30,25,"Study","Study Phase","",687,"",NA
"5c93073250e4fb0001f7907b",5,"Read Recog","CRACKLE","ELECTION","Study1","U",24,15,"Study","Study Phase","",789,"",NA
"5c93073250e4fb0001f7907b",5,"Read Recog","VEHICLE","CHARM","Study1","U",25,26,"Study","Study Phase","",865,"",NA
"5c93073250e4fb0001f7907b",5,"Read Recog","SOON","BELT","Study1","U",31,34,"Study","Study Phase","",712,"",NA
"5c93073250e4fb0001f7907b",5,"Read Recog","MEAT","KEYS","Study1","U",26,29,"Study","Study Phase","",721,"",NA
"5c93073250e4fb0001f7907b",5,"Read Recog","CAKE","HAND","Study1","U",34,13,"Study","Study Phase","",556,"",NA
"5c93073250e4fb0001f7907b",5,"Read Recog","SCALP","HEAD","Study1","F",8,30,"Study","Study Phase","",617,"",NA
"5c93073250e4fb0001f7907b",5,"Read Recog","TEMPERATURE","MORNING","Study1","U",33,8,"Study","Study Phase","",531,"",NA
"5c93073250e4fb0001f7907b",5,"Read Recog","HYGIENE","CLEAN","Study1","F",13,9,"Study","Study Phase","",586,"",NA
"5c93073250e4fb0001f7907b",5,"Read Recog","STRETCH","CLOTH","Study1","U",22,33,"Study","Study Phase","",611,"",NA
"5c93073250e4fb0001f7907b",5,"Read Recog","NAP","SLEEP","Study1","F",14,35,"Study","Study Phase","",503,"",NA
"5c93073250e4fb0001f7907b",5,"Read Recog","LISTEN","FICTION","Study1","U",29,19,"Study","Study Phase","",489,"",NA
"5c93073250e4fb0001f7907b",5,"Read Recog","WAGE","MONEY","Study1","F",7,28,"Study","Study Phase","",437,"",NA
"5c93073250e4fb0001f7907b",5,"Read Recog","GIVE","STEAK","Study1","U",23,7,"Study","Study Phase","",475,"",NA
"5c93073250e4fb0001f7907b",5,"Read Recog","MIRROR","MAROON","Study1","U",21,17,"Study","Study Phase","",884,"",NA
"5c93073250e4fb0001f7907b",5,"Read Recog","ORCHID","FLOWER","Study1","F",19,12,"Study","Study Phase","",659,"",NA
"5c93073250e4fb0001f7907b",5,"Read Recog","AFFECTION","LOVE","Study1","F",16,36,"Study","Study Phase","",393,"",NA
"5c93073250e4fb0001f7907b",5,"Read Recog","FUZZY","BANG","Study1","U",35,31,"Study","Study Phase","",470,"",NA
"5c93073250e4fb0001f7907b",5,"Read Recog","HORSE","COW","Study1","F",9,16,"Study","Study Phase","",444,"",NA
"5c93073250e4fb0001f7907b",5,"Read Recog","SIGN","TICK","Study1","U",32,20,"Study","Study Phase","",406,"",NA
"5d599edd98cf220016ec562e",5,"Read Recog","CREDIT","CARD","Study1","F",18,27,"Study","Study Phase","",1172,"",NA
"5d599edd98cf220016ec562e",5,"Read Recog","SIP","DRINK","Study1","F",17,18,"Study","Study Phase","",1271,"",NA
"5d599edd98cf220016ec562e",5,"Read Recog","STRETCH","CLOTH","Study1","U",22,28,"Study","Study Phase","",1372,"",NA
"5d599edd98cf220016ec562e",5,"Read Recog","CAKE","HAND","Study1","U",34,14,"Study","Study Phase","",1225,"",NA
"5d599edd98cf220016ec562e",5,"Read Recog","WORD","SENTENCE","Study1","F",12,36,"Study","Study Phase","",1647,"",NA
"5d599edd98cf220016ec562e",5,"Read Recog","LISTEN","FICTION","Study1","U",29,7,"Study","Study Phase","",984,"",NA
"5d599edd98cf220016ec562e",5,"Read Recog","WAGE","MONEY","Study1","F",7,16,"Study","Study Phase","",2709,"",NA
"5d599edd98cf220016ec562e",5,"Read Recog","SHELL","SHAKE","Study1","U",28,35,"Study","Study Phase","",1742,"",NA
"5d599edd98cf220016ec562e",5,"Read Recog","MULE","DONKEY","Study1","F",15,30,"Study","Study Phase","",1493,"",NA
"5d599edd98cf220016ec562e",5,"Read Recog","LITTER","TRASH","Study1","F",6,32,"Study","Study Phase","",1911,"",NA
"5d599edd98cf220016ec562e",5,"Read Recog","TUNA","FISH","Study1","F",20,8,"Study","Study Phase","",1457,"",NA
"5d599edd98cf220016ec562e",5,"Read Recog","TEMPERATURE","MORNING","Study1","U",33,9,"Study","Study Phase","",1664,"",NA
"5d599edd98cf220016ec562e",5,"Read Recog","ROOT","PLANT","Study1","F",10,34,"Study","Study Phase","",1443,"",NA
"5d599edd98cf220016ec562e",5,"Read Recog","CRACKLE","ELECTION","Study1","U",24,17,"Study","Study Phase","",1070,"",NA
"5d599edd98cf220016ec562e",5,"Read Recog","GIVE","STEAK","Study1","U",23,10,"Study","Study Phase","",1718,"",NA
"5d599edd98cf220016ec562e",5,"Read Recog","FUZZY","BANG","Study1","U",35,21,"Study","Study Phase","",2256,"",NA
"5d599edd98cf220016ec562e",5,"Read Recog","HYGIENE","CLEAN","Study1","F",13,24,"Study","Study Phase","",10728,"",NA
"5d599edd98cf220016ec562e",5,"Read Recog","MEAT","KEYS","Study1","U",26,13,"Study","Study Phase","",1094,"",NA
"5d599edd98cf220016ec562e",5,"Read Recog","HORSE","COW","Study1","F",9,25,"Study","Study Phase","",2096,"",NA
"5d599edd98cf220016ec562e",5,"Read Recog","MIRROR","MAROON","Study1","U",21,15,"Study","Study Phase","",1929,"",NA
"5d599edd98cf220016ec562e",5,"Read Recog","SWAN","BIRD","Study1","F",11,12,"Study","Study Phase","",1050,"",NA
"5d599edd98cf220016ec562e",5,"Read Recog","ORCHID","FLOWER","Study1","F",19,11,"Study","Study Phase","",1461,"",NA
"5d599edd98cf220016ec562e",5,"Read Recog","AFFECTION","LOVE","Study1","F",16,19,"Study","Study Phase","",2139,"",NA
"5d599edd98cf220016ec562e",5,"Read Recog","SIGN","TICK","Study1","U",32,26,"Study","Study Phase","",1052,"",NA
"5d599edd98cf220016ec562e",5,"Read Recog","KEYS","ROD","Study1","U",30,29,"Study","Study Phase","",1264,"",NA
"5d599edd98cf220016ec562e",5,"Read Recog","SCALP","HEAD","Study1","F",8,23,"Study","Study Phase","",1046,"",NA
"5d599edd98cf220016ec562e",5,"Read Recog","SOON","BELT","Study1","U",31,20,"Study","Study Phase","",925,"",NA
"5d599edd98cf220016ec562e",5,"Read Recog","VEHICLE","CHARM","Study1","U",25,33,"Study","Study Phase","",2010,"",NA
"5d599edd98cf220016ec562e",5,"Read Recog","NAP","SLEEP","Study1","F",14,22,"Study","Study Phase","",1545,"",NA
"5d599edd98cf220016ec562e",5,"Read Recog","MAZE","PHONE","Study1","U",27,31,"Study","Study Phase","",1419,"",NA
"5d5b9c693234e300154e514f",5,"Read Recog","TEMPERATURE","MORNING","Study1","U",33,13,"Study","Study Phase","",3718,"",NA
"5d5b9c693234e300154e514f",5,"Read Recog","SWAN","BIRD","Study1","F",11,14,"Study","Study Phase","",2570,"",NA
"5d5b9c693234e300154e514f",5,"Read Recog","SIGN","TICK","Study1","U",32,21,"Study","Study Phase","",3689,"",NA
"5d5b9c693234e300154e514f",5,"Read Recog","SHELL","SHAKE","Study1","U",28,18,"Study","Study Phase","",5014,"",NA
"5d5b9c693234e300154e514f",5,"Read Recog","STRETCH","CLOTH","Study1","U",22,12,"Study","Study Phase","",3596,"",NA
"5d5b9c693234e300154e514f",5,"Read Recog","GIVE","STEAK","Study1","U",23,31,"Study","Study Phase","",3357,"",NA
"5d5b9c693234e300154e514f",5,"Read Recog","ROOT","PLANT","Study1","F",10,29,"Study","Study Phase","",3429,"",NA
"5d5b9c693234e300154e514f",5,"Read Recog","CREDIT","CARD","Study1","F",18,11,"Study","Study Phase","",2143,"",NA
"5d5b9c693234e300154e514f",5,"Read Recog","WORD","SENTENCE","Study1","F",12,26,"Study","Study Phase","",4038,"",NA
"5d5b9c693234e300154e514f",5,"Read Recog","KEYS","ROD","Study1","U",30,32,"Study","Study Phase","",5510,"",NA
"5d5b9c693234e300154e514f",5,"Read Recog","ORCHID","FLOWER","Study1","F",19,27,"Study","Study Phase","",1769,"",NA
"5d5b9c693234e300154e514f",5,"Read Recog","SCALP","HEAD","Study1","F",8,35,"Study","Study Phase","",3146,"",NA
"5d5b9c693234e300154e514f",5,"Read Recog","WAGE","MONEY","Study1","F",7,20,"Study","Study Phase","",1354,"",NA
"5d5b9c693234e300154e514f",5,"Read Recog","SIP","DRINK","Study1","F",17,22,"Study","Study Phase","",1140,"",NA
"5d5b9c693234e300154e514f",5,"Read Recog","AFFECTION","LOVE","Study1","F",16,15,"Study","Study Phase","",2529,"",NA
"5d5b9c693234e300154e514f",5,"Read Recog","CAKE","HAND","Study1","U",34,10,"Study","Study Phase","",3324,"",NA
"5d5b9c693234e300154e514f",5,"Read Recog","MULE","DONKEY","Study1","F",15,33,"Study","Study Phase","",2620,"",NA
"5d5b9c693234e300154e514f",5,"Read Recog","VEHICLE","CHARM","Study1","U",25,28,"Study","Study Phase","",4760,"",NA
"5d5b9c693234e300154e514f",5,"Read Recog","TUNA","FISH","Study1","F",20,23,"Study","Study Phase","",2862,"",NA
"5d5b9c693234e300154e514f",5,"Read Recog","CRACKLE","ELECTION","Study1","U",24,19,"Study","Study Phase","",3366,"",NA
"5d5b9c693234e300154e514f",5,"Read Recog","FUZZY","BANG","Study1","U",35,25,"Study","Study Phase","",4177,"",NA
"5d5b9c693234e300154e514f",5,"Read Recog","LITTER","TRASH","Study1","F",6,36,"Study","Study Phase","",3283,"",NA
"5d5b9c693234e300154e514f",5,"Read Recog","MIRROR","MAROON","Study1","U",21,9,"Study","Study Phase","",2699,"",NA
"5d5b9c693234e300154e514f",5,"Read Recog","SOON","BELT","Study1","U",31,16,"Study","Study Phase","",3799,"",NA
"5d5b9c693234e300154e514f",5,"Read Recog","LISTEN","FICTION","Study1","U",29,30,"Study","Study Phase","",3885,"",NA
"5d5b9c693234e300154e514f",5,"Read Recog","MEAT","KEYS","Study1","U",26,7,"Study","Study Phase","",1767,"",NA
"5d5b9c693234e300154e514f",5,"Read Recog","NAP","SLEEP","Study1","F",14,34,"Study","Study Phase","",1727,"",NA
"5d5b9c693234e300154e514f",5,"Read Recog","HORSE","COW","Study1","F",9,8,"Study","Study Phase","",5392,"",NA
"5d5b9c693234e300154e514f",5,"Read Recog","HYGIENE","CLEAN","Study1","F",13,17,"Study","Study Phase","",2747,"",NA
"5d5b9c693234e300154e514f",5,"Read Recog","MAZE","PHONE","Study1","U",27,24,"Study","Study Phase","",3545,"",NA
"5d77eb3007e8770001acdef8",7,"Read Recog","ATTIRE","CLOTHES","Study2","F",9,32,"Study","Study Phase","",1004,"",NA
"5d77eb3007e8770001acdef8",7,"Read Recog","SUGAR","RIDDLE","Study2","U",25,18,"Study","Study Phase","",2758,"",NA
"5d77eb3007e8770001acdef8",7,"Read Recog","CHERRY","RED","Study2","F",10,28,"Study","Study Phase","",902,"",NA
"5d77eb3007e8770001acdef8",7,"Read Recog","MIRROR","CHILDREN","Study2","U",34,23,"Study","Study Phase","",810,"",NA
"5d77eb3007e8770001acdef8",7,"Read Recog","CHILL","COLD","Study2","F",17,20,"Study","Study Phase","",969,"",NA
"5d77eb3007e8770001acdef8",7,"Read Recog","WASP","BUG","Study2","F",19,15,"Study","Study Phase","",1015,"",NA
"5d77eb3007e8770001acdef8",7,"Read Recog","HAPPY","CAR","Study2","U",22,7,"Study","Study Phase","",802,"",NA
"5d77eb3007e8770001acdef8",7,"Read Recog","BRIDGE","WATER","Study2","F",20,21,"Study","Study Phase","",835,"",NA
"5d77eb3007e8770001acdef8",7,"Read Recog","INCENSE","SMELL","Study2","F",13,36,"Study","Study Phase","",1064,"",NA
"5d77eb3007e8770001acdef8",7,"Read Recog","CHISEL","HAMMER","Study2","F",8,34,"Study","Study Phase","",690,"",NA
"5d77eb3007e8770001acdef8",7,"Read Recog","DOCUMENT","PAPER","Study2","F",12,33,"Study","Study Phase","",670,"",NA
"5d77eb3007e8770001acdef8",7,"Read Recog","SICK","HIDE","Study2","U",30,14,"Study","Study Phase","",931,"",NA
"5d77eb3007e8770001acdef8",7,"Read Recog","KING","VASE","Study2","U",21,30,"Study","Study Phase","",660,"",NA
"5d77eb3007e8770001acdef8",7,"Read Recog","LEAGUE","BASEBALL","Study2","F",14,25,"Study","Study Phase","",690,"",NA
"5d77eb3007e8770001acdef8",7,"Read Recog","HORNET","STING","Study2","F",15,24,"Study","Study Phase","",863,"",NA
"5d77eb3007e8770001acdef8",7,"Read Recog","DIETARY","SACK","Study2","U",27,17,"Study","Study Phase","",782,"",NA
"5d77eb3007e8770001acdef8",7,"Read Recog","HERD","COW","Study2","F",18,27,"Study","Study Phase","",831,"",NA
"5d77eb3007e8770001acdef8",7,"Read Recog","LEASE","TOIL","Study2","U",31,22,"Study","Study Phase","",358,"",NA
"5d77eb3007e8770001acdef8",7,"Read Recog","BOTH","OUNCE","Study2","U",32,9,"Study","Study Phase","",826,"",NA
"5d77eb3007e8770001acdef8",7,"Read Recog","PUSH","CLUTTER","Study2","U",26,13,"Study","Study Phase","",588,"",NA
"5d77eb3007e8770001acdef8",7,"Read Recog","ARTERY","BRONZE","Study2","U",33,19,"Study","Study Phase","",1266,"",NA
"5d77eb3007e8770001acdef8",7,"Read Recog","CACTUS","PLANT","Study2","F",6,29,"Study","Study Phase","",1718,"",NA
"5d77eb3007e8770001acdef8",7,"Read Recog","STRONG","ACCIDENT","Study2","U",24,12,"Study","Study Phase","",794,"",NA
"5d77eb3007e8770001acdef8",7,"Read Recog","FEUD","FIGHT","Study2","F",16,8,"Study","Study Phase","",511,"",NA
"5d77eb3007e8770001acdef8",7,"Read Recog","DEATH","BUSINESS","Study2","U",29,35,"Study","Study Phase","",1734,"",NA
"5d77eb3007e8770001acdef8",7,"Read Recog","ART","WOLF","Study2","U",23,16,"Study","Study Phase","",613,"",NA
"5d77eb3007e8770001acdef8",7,"Read Recog","BENCH","HORN","Study2","U",28,11,"Study","Study Phase","",452,"",NA
"5d77eb3007e8770001acdef8",7,"Read Recog","CHOP","CUT","Study2","F",7,31,"Study","Study Phase","",495,"",NA
"5d77eb3007e8770001acdef8",7,"Read Recog","BLAZE","FIRE","Study2","F",11,10,"Study","Study Phase","",498,"",NA
"5d77eb3007e8770001acdef8",7,"Read Recog","CASH","LEG","Study2","U",35,26,"Study","Study Phase","",503,"",NA
"5db77b2f181176000b66533c",7,"Read Recog","CHOP","CUT","Study2","F",7,22,"Study","Study Phase","",6876,"",NA
"5db77b2f181176000b66533c",7,"Read Recog","CHISEL","HAMMER","Study2","F",8,24,"Study","Study Phase","",8044,"",NA
"5db77b2f181176000b66533c",7,"Read Recog","MIRROR","CHILDREN","Study2","U",34,16,"Study","Study Phase","",5402,"",NA
"5db77b2f181176000b66533c",7,"Read Recog","HORNET","STING","Study2","F",15,28,"Study","Study Phase","",6052,"",NA
"5db77b2f181176000b66533c",7,"Read Recog","BLAZE","FIRE","Study2","F",11,7,"Study","Study Phase","",4706,"",NA
"5db77b2f181176000b66533c",7,"Read Recog","INCENSE","SMELL","Study2","F",13,19,"Study","Study Phase","",7946,"",NA
"5db77b2f181176000b66533c",7,"Read Recog","BOTH","OUNCE","Study2","U",32,27,"Study","Study Phase","",7532,"",NA
"5db77b2f181176000b66533c",7,"Read Recog","KING","VASE","Study2","U",21,13,"Study","Study Phase","",6581,"",NA
"5db77b2f181176000b66533c",7,"Read Recog","PUSH","CLUTTER","Study2","U",26,36,"Study","Study Phase","",6606,"",NA
"5db77b2f181176000b66533c",7,"Read Recog","ART","WOLF","Study2","U",23,26,"Study","Study Phase","",6715,"",NA
"5db77b2f181176000b66533c",7,"Read Recog","SUGAR","RIDDLE","Study2","U",25,35,"Study","Study Phase","",9008,"",NA
"5db77b2f181176000b66533c",7,"Read Recog","STRONG","ACCIDENT","Study2","U",24,29,"Study","Study Phase","",8992,"",NA
"5db77b2f181176000b66533c",7,"Read Recog","DOCUMENT","PAPER","Study2","F",12,25,"Study","Study Phase","",5359,"",NA
"5db77b2f181176000b66533c",7,"Read Recog","CACTUS","PLANT","Study2","F",6,34,"Study","Study Phase","",5235,"",NA
"5db77b2f181176000b66533c",7,"Read Recog","DEATH","BUSINESS","Study2","U",29,20,"Study","Study Phase","",5317,"",NA
"5db77b2f181176000b66533c",7,"Read Recog","HAPPY","CAR","Study2","U",22,32,"Study","Study Phase","",9088,"",NA
"5db77b2f181176000b66533c",7,"Read Recog","HERD","COW","Study2","F",18,33,"Study","Study Phase","",4691,"",NA
"5db77b2f181176000b66533c",7,"Read Recog","SICK","HIDE","Study2","U",30,31,"Study","Study Phase","",6870,"",NA
"5db77b2f181176000b66533c",7,"Read Recog","BRIDGE","WATER","Study2","F",20,17,"Study","Study Phase","",6013,"",NA
"5db77b2f181176000b66533c",7,"Read Recog","BENCH","HORN","Study2","U",28,10,"Study","Study Phase","",6368,"",NA
"5db77b2f181176000b66533c",7,"Read Recog","CHERRY","RED","Study2","F",10,21,"Study","Study Phase","",7878,"",NA
"5db77b2f181176000b66533c",7,"Read Recog","DIETARY","SACK","Study2","U",27,14,"Study","Study Phase","",5843,"",NA
"5db77b2f181176000b66533c",7,"Read Recog","WASP","BUG","Study2","F",19,11,"Study","Study Phase","",6492,"",NA
"5db77b2f181176000b66533c",7,"Read Recog","LEASE","TOIL","Study2","U",31,30,"Study","Study Phase","",8553,"",NA
"5db77b2f181176000b66533c",7,"Read Recog","CHILL","COLD","Study2","F",17,18,"Study","Study Phase","",7706,"",NA
"5db77b2f181176000b66533c",7,"Read Recog","ATTIRE","CLOTHES","Study2","F",9,9,"Study","Study Phase","",6893,"",NA
"5db77b2f181176000b66533c",7,"Read Recog","LEAGUE","BASEBALL","Study2","F",14,8,"Study","Study Phase","",5738,"",NA
"5db77b2f181176000b66533c",7,"Read Recog","ARTERY","BRONZE","Study2","U",33,12,"Study","Study Phase","",11297,"",NA
"5db77b2f181176000b66533c",7,"Read Recog","CASH","LEG","Study2","U",35,15,"Study","Study Phase","",5891,"",NA
"5db77b2f181176000b66533c",7,"Read Recog","FEUD","FIGHT","Study2","F",16,23,"Study","Study Phase","",6549,"",NA
"5dc81a6d28e0d56b16ffeae9",7,"Read Recog","DOCUMENT","PAPER","Study2","F",12,17,"Study","Study Phase","",1242,"",NA
"5dc81a6d28e0d56b16ffeae9",7,"Read Recog","BOTH","OUNCE","Study2","U",32,30,"Study","Study Phase","",3029,"",NA
"5dc81a6d28e0d56b16ffeae9",7,"Read Recog","HERD","COW","Study2","F",18,13,"Study","Study Phase","",1601,"",NA
"5dc81a6d28e0d56b16ffeae9",7,"Read Recog","SICK","HIDE","Study2","U",30,18,"Study","Study Phase","",1621,"",NA
"5dc81a6d28e0d56b16ffeae9",7,"Read Recog","CHOP","CUT","Study2","F",7,33,"Study","Study Phase","",1461,"",NA
"5dc81a6d28e0d56b16ffeae9",7,"Read Recog","ARTERY","BRONZE","Study2","U",33,25,"Study","Study Phase","",2161,"",NA
"5dc81a6d28e0d56b16ffeae9",7,"Read Recog","WASP","BUG","Study2","F",19,36,"Study","Study Phase","",1944,"",NA
"5dc81a6d28e0d56b16ffeae9",7,"Read Recog","BLAZE","FIRE","Study2","F",11,35,"Study","Study Phase","",1703,"",NA
"5dc81a6d28e0d56b16ffeae9",7,"Read Recog","LEAGUE","BASEBALL","Study2","F",14,24,"Study","Study Phase","",1164,"",NA
"5dc81a6d28e0d56b16ffeae9",7,"Read Recog","ART","WOLF","Study2","U",23,7,"Study","Study Phase","",2195,"",NA
"5dc81a6d28e0d56b16ffeae9",7,"Read Recog","FEUD","FIGHT","Study2","F",16,10,"Study","Study Phase","",2587,"",NA
"5dc81a6d28e0d56b16ffeae9",7,"Read Recog","CHILL","COLD","Study2","F",17,34,"Study","Study Phase","",1634,"",NA
"5dc81a6d28e0d56b16ffeae9",7,"Read Recog","BRIDGE","WATER","Study2","F",20,9,"Study","Study Phase","",1456,"",NA
"5dc81a6d28e0d56b16ffeae9",7,"Read Recog","LEASE","TOIL","Study2","U",31,12,"Study","Study Phase","",1771,"",NA
"5dc81a6d28e0d56b16ffeae9",7,"Read Recog","SUGAR","RIDDLE","Study2","U",25,16,"Study","Study Phase","",1955,"",NA
"5dc81a6d28e0d56b16ffeae9",7,"Read Recog","DEATH","BUSINESS","Study2","U",29,28,"Study","Study Phase","",1427,"",NA
"5dc81a6d28e0d56b16ffeae9",7,"Read Recog","CACTUS","PLANT","Study2","F",6,20,"Study","Study Phase","",1941,"",NA
"5dc81a6d28e0d56b16ffeae9",7,"Read Recog","STRONG","ACCIDENT","Study2","U",24,27,"Study","Study Phase","",1682,"",NA
"5dc81a6d28e0d56b16ffeae9",7,"Read Recog","DIETARY","SACK","Study2","U",27,15,"Study","Study Phase","",1775,"",NA
"5dc81a6d28e0d56b16ffeae9",7,"Read Recog","ATTIRE","CLOTHES","Study2","F",9,29,"Study","Study Phase","",1572,"",NA
"5dc81a6d28e0d56b16ffeae9",7,"Read Recog","INCENSE","SMELL","Study2","F",13,26,"Study","Study Phase","",2286,"",NA
"5dc81a6d28e0d56b16ffeae9",7,"Read Recog","HORNET","STING","Study2","F",15,23,"Study","Study Phase","",1895,"",NA
"5dc81a6d28e0d56b16ffeae9",7,"Read Recog","CASH","LEG","Study2","U",35,31,"Study","Study Phase","",1693,"",NA
"5dc81a6d28e0d56b16ffeae9",7,"Read Recog","BENCH","HORN","Study2","U",28,32,"Study","Study Phase","",1895,"",NA
"5dc81a6d28e0d56b16ffeae9",7,"Read Recog","CHERRY","RED","Study2","F",10,14,"Study","Study Phase","",1744,"",NA
"5dc81a6d28e0d56b16ffeae9",7,"Read Recog","CHISEL","HAMMER","Study2","F",8,8,"Study","Study Phase","",1843,"",NA
"5dc81a6d28e0d56b16ffeae9",7,"Read Recog","KING","VASE","Study2","U",21,11,"Study","Study Phase","",1388,"",NA
"5dc81a6d28e0d56b16ffeae9",7,"Read Recog","MIRROR","CHILDREN","Study2","U",34,19,"Study","Study Phase","",1400,"",NA
"5dc81a6d28e0d56b16ffeae9",7,"Read Recog","HAPPY","CAR","Study2","U",22,22,"Study","Study Phase","",1946,"",NA
"5dc81a6d28e0d56b16ffeae9",7,"Read Recog","PUSH","CLUTTER","Study2","U",26,21,"Study","Study Phase","",1926,"",NA
"5e722d54811ec3046b5defbd",7,"Read Recog","SICK","HIDE","Study2","U",30,25,"Study","Study Phase","",2473,"",NA
"5e722d54811ec3046b5defbd",7,"Read Recog","BOTH","OUNCE","Study2","U",32,31,"Study","Study Phase","",4581,"",NA
"5e722d54811ec3046b5defbd",7,"Read Recog","CHERRY","RED","Study2","F",10,7,"Study","Study Phase","",3372,"",NA
"5e722d54811ec3046b5defbd",7,"Read Recog","PUSH","CLUTTER","Study2","U",26,14,"Study","Study Phase","",2759,"",NA
"5e722d54811ec3046b5defbd",7,"Read Recog","STRONG","ACCIDENT","Study2","U",24,10,"Study","Study Phase","",14233,"",NA
"5e722d54811ec3046b5defbd",7,"Read Recog","LEASE","TOIL","Study2","U",31,30,"Study","Study Phase","",1919,"",NA
"5e722d54811ec3046b5defbd",7,"Read Recog","ARTERY","BRONZE","Study2","U",33,26,"Study","Study Phase","",4288,"",NA
"5e722d54811ec3046b5defbd",7,"Read Recog","HAPPY","CAR","Study2","U",22,15,"Study","Study Phase","",4825,"",NA
"5e722d54811ec3046b5defbd",7,"Read Recog","CHISEL","HAMMER","Study2","F",8,36,"Study","Study Phase","",3596,"",NA
"5e722d54811ec3046b5defbd",7,"Read Recog","HORNET","STING","Study2","F",15,35,"Study","Study Phase","",3009,"",NA
"5e722d54811ec3046b5defbd",7,"Read Recog","DOCUMENT","PAPER","Study2","F",12,33,"Study","Study Phase","",3631,"",NA
"5e722d54811ec3046b5defbd",7,"Read Recog","HERD","COW","Study2","F",18,8,"Study","Study Phase","",2431,"",NA
"5e722d54811ec3046b5defbd",7,"Read Recog","WASP","BUG","Study2","F",19,28,"Study","Study Phase","",8631,"",NA
"5e722d54811ec3046b5defbd",7,"Read Recog","INCENSE","SMELL","Study2","F",13,32,"Study","Study Phase","",2321,"",NA
"5e722d54811ec3046b5defbd",7,"Read Recog","SUGAR","RIDDLE","Study2","U",25,23,"Study","Study Phase","",3098,"",NA
"5e722d54811ec3046b5defbd",7,"Read Recog","KING","VASE","Study2","U",21,21,"Study","Study Phase","",2912,"",NA
"5e722d54811ec3046b5defbd",7,"Read Recog","BENCH","HORN","Study2","U",28,19,"Study","Study Phase","",3555,"",NA
"5e722d54811ec3046b5defbd",7,"Read Recog","CACTUS","PLANT","Study2","F",6,16,"Study","Study Phase","",3769,"",NA
"5e722d54811ec3046b5defbd",7,"Read Recog","CHOP","CUT","Study2","F",7,17,"Study","Study Phase","",2946,"",NA
"5e722d54811ec3046b5defbd",7,"Read Recog","DEATH","BUSINESS","Study2","U",29,22,"Study","Study Phase","",1748,"",NA
"5e722d54811ec3046b5defbd",7,"Read Recog","BRIDGE","WATER","Study2","F",20,20,"Study","Study Phase","",2903,"",NA
"5e722d54811ec3046b5defbd",7,"Read Recog","DIETARY","SACK","Study2","U",27,13,"Study","Study Phase","",2524,"",NA
"5e722d54811ec3046b5defbd",7,"Read Recog","BLAZE","FIRE","Study2","F",11,27,"Study","Study Phase","",3766,"",NA
"5e722d54811ec3046b5defbd",7,"Read Recog","CASH","LEG","Study2","U",35,34,"Study","Study Phase","",3781,"",NA
"5e722d54811ec3046b5defbd",7,"Read Recog","FEUD","FIGHT","Study2","F",16,24,"Study","Study Phase","",3083,"",NA
"5e722d54811ec3046b5defbd",7,"Read Recog","CHILL","COLD","Study2","F",17,11,"Study","Study Phase","",2459,"",NA
"5e722d54811ec3046b5defbd",7,"Read Recog","ART","WOLF","Study2","U",23,9,"Study","Study Phase","",2994,"",NA
"5e722d54811ec3046b5defbd",7,"Read Recog","MIRROR","CHILDREN","Study2","U",34,29,"Study","Study Phase","",1799,"",NA
"5e722d54811ec3046b5defbd",7,"Read Recog","LEAGUE","BASEBALL","Study2","F",14,12,"Study","Study Phase","",1927,"",NA
"5e722d54811ec3046b5defbd",7,"Read Recog","ATTIRE","CLOTHES","Study2","F",9,18,"Study","Study Phase","",2337,"",NA
"5e904f36cc3d6c355bbf48fa",7,"Read Recog","CHILL","COLD","Study2","F",17,16,"Study","Study Phase","",4803,"",NA
"5e904f36cc3d6c355bbf48fa",7,"Read Recog","HORNET","STING","Study2","F",15,29,"Study","Study Phase","",8684,"",NA
"5e904f36cc3d6c355bbf48fa",7,"Read Recog","BRIDGE","WATER","Study2","F",20,15,"Study","Study Phase","",6589,"",NA
"5e904f36cc3d6c355bbf48fa",7,"Read Recog","ARTERY","BRONZE","Study2","U",33,26,"Study","Study Phase","",5011,"",NA
"5e904f36cc3d6c355bbf48fa",7,"Read Recog","SICK","HIDE","Study2","U",30,34,"Study","Study Phase","",6064,"",NA
"5e904f36cc3d6c355bbf48fa",7,"Read Recog","PUSH","CLUTTER","Study2","U",26,8,"Study","Study Phase","",7839,"",NA
"5e904f36cc3d6c355bbf48fa",7,"Read Recog","ATTIRE","CLOTHES","Study2","F",9,30,"Study","Study Phase","",5563,"",NA
"5e904f36cc3d6c355bbf48fa",7,"Read Recog","DIETARY","SACK","Study2","U",27,9,"Study","Study Phase","",6584,"",NA
"5e904f36cc3d6c355bbf48fa",7,"Read Recog","BENCH","HORN","Study2","U",28,33,"Study","Study Phase","",2233,"",NA
"5e904f36cc3d6c355bbf48fa",7,"Read Recog","MIRROR","CHILDREN","Study2","U",34,28,"Study","Study Phase","",10970,"",NA
"5e904f36cc3d6c355bbf48fa",7,"Read Recog","DOCUMENT","PAPER","Study2","F",12,32,"Study","Study Phase","",6184,"",NA
"5e904f36cc3d6c355bbf48fa",7,"Read Recog","FEUD","FIGHT","Study2","F",16,14,"Study","Study Phase","",4548,"",NA
"5e904f36cc3d6c355bbf48fa",7,"Read Recog","HERD","COW","Study2","F",18,10,"Study","Study Phase","",6653,"",NA
"5e904f36cc3d6c355bbf48fa",7,"Read Recog","HAPPY","CAR","Study2","U",22,20,"Study","Study Phase","",5506,"",NA
"5e904f36cc3d6c355bbf48fa",7,"Read Recog","DEATH","BUSINESS","Study2","U",29,12,"Study","Study Phase","",6882,"",NA
"5e904f36cc3d6c355bbf48fa",7,"Read Recog","CHOP","CUT","Study2","F",7,25,"Study","Study Phase","",3890,"",NA
"5e904f36cc3d6c355bbf48fa",7,"Read Recog","BLAZE","FIRE","Study2","F",11,22,"Study","Study Phase","",4308,"",NA
"5e904f36cc3d6c355bbf48fa",7,"Read Recog","CACTUS","PLANT","Study2","F",6,17,"Study","Study Phase","",6868,"",NA
"5e904f36cc3d6c355bbf48fa",7,"Read Recog","LEAGUE","BASEBALL","Study2","F",14,23,"Study","Study Phase","",10028,"",NA
"5e904f36cc3d6c355bbf48fa",7,"Read Recog","CHISEL","HAMMER","Study2","F",8,7,"Study","Study Phase","",6495,"",NA
"5e904f36cc3d6c355bbf48fa",7,"Read Recog","ART","WOLF","Study2","U",23,24,"Study","Study Phase","",5573,"",NA
"5e904f36cc3d6c355bbf48fa",7,"Read Recog","LEASE","TOIL","Study2","U",31,18,"Study","Study Phase","",7071,"",NA
"5e904f36cc3d6c355bbf48fa",7,"Read Recog","KING","VASE","Study2","U",21,19,"Study","Study Phase","",5353,"",NA
"5e904f36cc3d6c355bbf48fa",7,"Read Recog","BOTH","OUNCE","Study2","U",32,27,"Study","Study Phase","",3942,"",NA
"5e904f36cc3d6c355bbf48fa",7,"Read Recog","CHERRY","RED","Study2","F",10,31,"Study","Study Phase","",4588,"",NA
"5e904f36cc3d6c355bbf48fa",7,"Read Recog","CASH","LEG","Study2","U",35,21,"Study","Study Phase","",5383,"",NA
"5e904f36cc3d6c355bbf48fa",7,"Read Recog","STRONG","ACCIDENT","Study2","U",24,36,"Study","Study Phase","",5868,"",NA
"5e904f36cc3d6c355bbf48fa",7,"Read Recog","INCENSE","SMELL","Study2","F",13,11,"Study","Study Phase","",6226,"",NA
"5e904f36cc3d6c355bbf48fa",7,"Read Recog","SUGAR","RIDDLE","Study2","U",25,13,"Study","Study Phase","",5398,"",NA
"5e904f36cc3d6c355bbf48fa",7,"Read Recog","WASP","BUG","Study2","F",19,35,"Study","Study Phase","",8094,"",NA
"5ea954b828c814030440af23",5,"Read Recog","KEYS","ROD","Study1","U",30,35,"Study","Study Phase","",8480,"",NA
"5ea954b828c814030440af23",5,"Read Recog","SCALP","HEAD","Study1","F",8,19,"Study","Study Phase","",3388,"",NA
"5ea954b828c814030440af23",5,"Read Recog","MEAT","KEYS","Study1","U",26,26,"Study","Study Phase","",15386,"",NA
"5ea954b828c814030440af23",5,"Read Recog","SWAN","BIRD","Study1","F",11,27,"Study","Study Phase","",1822,"",NA
"5ea954b828c814030440af23",5,"Read Recog","ROOT","PLANT","Study1","F",10,16,"Study","Study Phase","",1849,"",NA
"5ea954b828c814030440af23",5,"Read Recog","SIGN","TICK","Study1","U",32,10,"Study","Study Phase","",3231,"",NA
"5ea954b828c814030440af23",5,"Read Recog","HORSE","COW","Study1","F",9,32,"Study","Study Phase","",2842,"",NA
"5ea954b828c814030440af23",5,"Read Recog","HYGIENE","CLEAN","Study1","F",13,34,"Study","Study Phase","",5102,"",NA
"5ea954b828c814030440af23",5,"Read Recog","FUZZY","BANG","Study1","U",35,11,"Study","Study Phase","",4461,"",NA
"5ea954b828c814030440af23",5,"Read Recog","MIRROR","MAROON","Study1","U",21,28,"Study","Study Phase","",1061,"",NA
"5ea954b828c814030440af23",5,"Read Recog","TEMPERATURE","MORNING","Study1","U",33,25,"Study","Study Phase","",3813,"",NA
"5ea954b828c814030440af23",5,"Read Recog","LITTER","TRASH","Study1","F",6,15,"Study","Study Phase","",1843,"",NA
"5ea954b828c814030440af23",5,"Read Recog","TUNA","FISH","Study1","F",20,17,"Study","Study Phase","",1583,"",NA
"5ea954b828c814030440af23",5,"Read Recog","SOON","BELT","Study1","U",31,8,"Study","Study Phase","",7060,"",NA
"5ea954b828c814030440af23",5,"Read Recog","VEHICLE","CHARM","Study1","U",25,7,"Study","Study Phase","",3571,"",NA
"5ea954b828c814030440af23",5,"Read Recog","ORCHID","FLOWER","Study1","F",19,9,"Study","Study Phase","",1256,"",NA
"5ea954b828c814030440af23",5,"Read Recog","STRETCH","CLOTH","Study1","U",22,22,"Study","Study Phase","",6514,"",NA
"5ea954b828c814030440af23",5,"Read Recog","CAKE","HAND","Study1","U",34,21,"Study","Study Phase","",4335,"",NA
"5ea954b828c814030440af23",5,"Read Recog","MULE","DONKEY","Study1","F",15,13,"Study","Study Phase","",2391,"",NA
"5ea954b828c814030440af23",5,"Read Recog","WORD","SENTENCE","Study1","F",12,12,"Study","Study Phase","",910,"",NA
"5ea954b828c814030440af23",5,"Read Recog","SHELL","SHAKE","Study1","U",28,33,"Study","Study Phase","",4280,"",NA
"5ea954b828c814030440af23",5,"Read Recog","CRACKLE","ELECTION","Study1","U",24,23,"Study","Study Phase","",4878,"",NA
"5ea954b828c814030440af23",5,"Read Recog","GIVE","STEAK","Study1","U",23,18,"Study","Study Phase","",2225,"",NA
"5ea954b828c814030440af23",5,"Read Recog","CREDIT","CARD","Study1","F",18,30,"Study","Study Phase","",2604,"",NA
"5ea954b828c814030440af23",5,"Read Recog","WAGE","MONEY","Study1","F",7,24,"Study","Study Phase","",1792,"",NA
"5ea954b828c814030440af23",5,"Read Recog","AFFECTION","LOVE","Study1","F",16,20,"Study","Study Phase","",2754,"",NA
"5ea954b828c814030440af23",5,"Read Recog","SIP","DRINK","Study1","F",17,14,"Study","Study Phase","",2989,"",NA
"5ea954b828c814030440af23",5,"Read Recog","LISTEN","FICTION","Study1","U",29,36,"Study","Study Phase","",1962,"",NA
"5ea954b828c814030440af23",5,"Read Recog","MAZE","PHONE","Study1","U",27,31,"Study","Study Phase","",5137,"",NA
"5ea954b828c814030440af23",5,"Read Recog","NAP","SLEEP","Study1","F",14,29,"Study","Study Phase","",3317,"",NA
"5eb331bc1f70081249e6fb7a",5,"Read Recog","CAKE","HAND","Study1","U",34,35,"Study","Study Phase","",3924,"",NA
"5eb331bc1f70081249e6fb7a",5,"Read Recog","LISTEN","FICTION","Study1","U",29,25,"Study","Study Phase","",2749,"",NA
"5eb331bc1f70081249e6fb7a",5,"Read Recog","SIP","DRINK","Study1","F",17,13,"Study","Study Phase","",6501,"",NA
"5eb331bc1f70081249e6fb7a",5,"Read Recog","KEYS","ROD","Study1","U",30,28,"Study","Study Phase","",4018,"",NA
"5eb331bc1f70081249e6fb7a",5,"Read Recog","CRACKLE","ELECTION","Study1","U",24,18,"Study","Study Phase","",4455,"",NA
"5eb331bc1f70081249e6fb7a",5,"Read Recog","ROOT","PLANT","Study1","F",10,17,"Study","Study Phase","",3464,"",NA
"5eb331bc1f70081249e6fb7a",5,"Read Recog","SWAN","BIRD","Study1","F",11,24,"Study","Study Phase","",1283,"",NA
"5eb331bc1f70081249e6fb7a",5,"Read Recog","HYGIENE","CLEAN","Study1","F",13,26,"Study","Study Phase","",1157,"",NA
"5eb331bc1f70081249e6fb7a",5,"Read Recog","NAP","SLEEP","Study1","F",14,14,"Study","Study Phase","",953,"",NA
"5eb331bc1f70081249e6fb7a",5,"Read Recog","GIVE","STEAK","Study1","U",23,23,"Study","Study Phase","",3905,"",NA
"5eb331bc1f70081249e6fb7a",5,"Read Recog","MEAT","KEYS","Study1","U",26,9,"Study","Study Phase","",7053,"",NA
"5eb331bc1f70081249e6fb7a",5,"Read Recog","TUNA","FISH","Study1","F",20,20,"Study","Study Phase","",986,"",NA
"5eb331bc1f70081249e6fb7a",5,"Read Recog","MAZE","PHONE","Study1","U",27,34,"Study","Study Phase","",3180,"",NA
"5eb331bc1f70081249e6fb7a",5,"Read Recog","SHELL","SHAKE","Study1","U",28,15,"Study","Study Phase","",2977,"",NA
"5eb331bc1f70081249e6fb7a",5,"Read Recog","HORSE","COW","Study1","F",9,31,"Study","Study Phase","",1711,"",NA
"5eb331bc1f70081249e6fb7a",5,"Read Recog","WAGE","MONEY","Study1","F",7,27,"Study","Study Phase","",1421,"",NA
"5eb331bc1f70081249e6fb7a",5,"Read Recog","MIRROR","MAROON","Study1","U",21,33,"Study","Study Phase","",1752,"",NA
"5eb331bc1f70081249e6fb7a",5,"Read Recog","WORD","SENTENCE","Study1","F",12,10,"Study","Study Phase","",1158,"",NA
"5eb331bc1f70081249e6fb7a",5,"Read Recog","MULE","DONKEY","Study1","F",15,12,"Study","Study Phase","",1769,"",NA
"5eb331bc1f70081249e6fb7a",5,"Read Recog","STRETCH","CLOTH","Study1","U",22,32,"Study","Study Phase","",1952,"",NA
"5eb331bc1f70081249e6fb7a",5,"Read Recog","AFFECTION","LOVE","Study1","F",16,22,"Study","Study Phase","",1221,"",NA
"5eb331bc1f70081249e6fb7a",5,"Read Recog","VEHICLE","CHARM","Study1","U",25,7,"Study","Study Phase","",4311,"",NA
"5eb331bc1f70081249e6fb7a",5,"Read Recog","SCALP","HEAD","Study1","F",8,16,"Study","Study Phase","",1569,"",NA
"5eb331bc1f70081249e6fb7a",5,"Read Recog","LITTER","TRASH","Study1","F",6,8,"Study","Study Phase","",928,"",NA
"5eb331bc1f70081249e6fb7a",5,"Read Recog","TEMPERATURE","MORNING","Study1","U",33,36,"Study","Study Phase","",1522,"",NA
"5eb331bc1f70081249e6fb7a",5,"Read Recog","FUZZY","BANG","Study1","U",35,30,"Study","Study Phase","",3523,"",NA
"5eb331bc1f70081249e6fb7a",5,"Read Recog","CREDIT","CARD","Study1","F",18,11,"Study","Study Phase","",860,"",NA
"5eb331bc1f70081249e6fb7a",5,"Read Recog","SOON","BELT","Study1","U",31,19,"Study","Study Phase","",1896,"",NA
"5eb331bc1f70081249e6fb7a",5,"Read Recog","ORCHID","FLOWER","Study1","F",19,29,"Study","Study Phase","",1625,"",NA
"5eb331bc1f70081249e6fb7a",5,"Read Recog","SIGN","TICK","Study1","U",32,21,"Study","Study Phase","",3626,"",NA
"5eb41e0f7e240422f415ce86",5,"Read Recog","SIGN","TICK","Study1","U",32,14,"Study","Study Phase","",1189,"",NA
"5eb41e0f7e240422f415ce86",5,"Read Recog","LITTER","TRASH","Study1","F",6,11,"Study","Study Phase","",1618,"",NA
"5eb41e0f7e240422f415ce86",5,"Read Recog","CREDIT","CARD","Study1","F",18,32,"Study","Study Phase","",1294,"",NA
"5eb41e0f7e240422f415ce86",5,"Read Recog","FUZZY","BANG","Study1","U",35,26,"Study","Study Phase","",2181,"",NA
"5eb41e0f7e240422f415ce86",5,"Read Recog","MEAT","KEYS","Study1","U",26,9,"Study","Study Phase","",1285,"",NA
"5eb41e0f7e240422f415ce86",5,"Read Recog","VEHICLE","CHARM","Study1","U",25,17,"Study","Study Phase","",999,"",NA
"5eb41e0f7e240422f415ce86",5,"Read Recog","TEMPERATURE","MORNING","Study1","U",33,8,"Study","Study Phase","",1622,"",NA
"5eb41e0f7e240422f415ce86",5,"Read Recog","SHELL","SHAKE","Study1","U",28,19,"Study","Study Phase","",1184,"",NA
"5eb41e0f7e240422f415ce86",5,"Read Recog","MAZE","PHONE","Study1","U",27,10,"Study","Study Phase","",1312,"",NA
"5eb41e0f7e240422f415ce86",5,"Read Recog","CAKE","HAND","Study1","U",34,16,"Study","Study Phase","",1466,"",NA
"5eb41e0f7e240422f415ce86",5,"Read Recog","NAP","SLEEP","Study1","F",14,21,"Study","Study Phase","",1804,"",NA
"5eb41e0f7e240422f415ce86",5,"Read Recog","TUNA","FISH","Study1","F",20,7,"Study","Study Phase","",1100,"",NA
"5eb41e0f7e240422f415ce86",5,"Read Recog","WORD","SENTENCE","Study1","F",12,22,"Study","Study Phase","",1210,"",NA
"5eb41e0f7e240422f415ce86",5,"Read Recog","SOON","BELT","Study1","U",31,35,"Study","Study Phase","",1266,"",NA
"5eb41e0f7e240422f415ce86",5,"Read Recog","SCALP","HEAD","Study1","F",8,34,"Study","Study Phase","",1258,"",NA
"5eb41e0f7e240422f415ce86",5,"Read Recog","STRETCH","CLOTH","Study1","U",22,18,"Study","Study Phase","",1227,"",NA
"5eb41e0f7e240422f415ce86",5,"Read Recog","ROOT","PLANT","Study1","F",10,23,"Study","Study Phase","",1097,"",NA
"5eb41e0f7e240422f415ce86",5,"Read Recog","SIP","DRINK","Study1","F",17,31,"Study","Study Phase","",1954,"",NA
"5eb41e0f7e240422f415ce86",5,"Read Recog","HYGIENE","CLEAN","Study1","F",13,24,"Study","Study Phase","",1367,"",NA
"5eb41e0f7e240422f415ce86",5,"Read Recog","KEYS","ROD","Study1","U",30,27,"Study","Study Phase","",1375,"",NA
"5eb41e0f7e240422f415ce86",5,"Read Recog","HORSE","COW","Study1","F",9,33,"Study","Study Phase","",1406,"",NA
"5eb41e0f7e240422f415ce86",5,"Read Recog","GIVE","STEAK","Study1","U",23,36,"Study","Study Phase","",1329,"",NA
"5eb41e0f7e240422f415ce86",5,"Read Recog","LISTEN","FICTION","Study1","U",29,25,"Study","Study Phase","",1212,"",NA
"5eb41e0f7e240422f415ce86",5,"Read Recog","MIRROR","MAROON","Study1","U",21,13,"Study","Study Phase","",1480,"",NA
"5eb41e0f7e240422f415ce86",5,"Read Recog","AFFECTION","LOVE","Study1","F",16,12,"Study","Study Phase","",1630,"",NA
"5eb41e0f7e240422f415ce86",5,"Read Recog","WAGE","MONEY","Study1","F",7,15,"Study","Study Phase","",1223,"",NA
"5eb41e0f7e240422f415ce86",5,"Read Recog","ORCHID","FLOWER","Study1","F",19,30,"Study","Study Phase","",1421,"",NA
"5eb41e0f7e240422f415ce86",5,"Read Recog","SWAN","BIRD","Study1","F",11,29,"Study","Study Phase","",1080,"",NA
"5eb41e0f7e240422f415ce86",5,"Read Recog","MULE","DONKEY","Study1","F",15,28,"Study","Study Phase","",1290,"",NA
"5eb41e0f7e240422f415ce86",5,"Read Recog","CRACKLE","ELECTION","Study1","U",24,20,"Study","Study Phase","",1534,"",NA
"5eeaff91fd89901efebf84b4",5,"Read Recog","WAGE","MONEY","Study1","F",7,13,"Study","Study Phase","",2831,"",NA
"5eeaff91fd89901efebf84b4",5,"Read Recog","HYGIENE","CLEAN","Study1","F",13,12,"Study","Study Phase","",2612,"",NA
"5eeaff91fd89901efebf84b4",5,"Read Recog","SIP","DRINK","Study1","F",17,34,"Study","Study Phase","",3861,"",NA
"5eeaff91fd89901efebf84b4",5,"Read Recog","LITTER","TRASH","Study1","F",6,8,"Study","Study Phase","",2754,"",NA
"5eeaff91fd89901efebf84b4",5,"Read Recog","CAKE","HAND","Study1","U",34,9,"Study","Study Phase","",6381,"",NA
"5eeaff91fd89901efebf84b4",5,"Read Recog","MEAT","KEYS","Study1","U",26,29,"Study","Study Phase","",6469,"",NA
"5eeaff91fd89901efebf84b4",5,"Read Recog","CREDIT","CARD","Study1","F",18,7,"Study","Study Phase","",3526,"",NA
"5eeaff91fd89901efebf84b4",5,"Read Recog","HORSE","COW","Study1","F",9,19,"Study","Study Phase","",6574,"",NA
"5eeaff91fd89901efebf84b4",5,"Read Recog","STRETCH","CLOTH","Study1","U",22,18,"Study","Study Phase","",5930,"",NA
"5eeaff91fd89901efebf84b4",5,"Read Recog","KEYS","ROD","Study1","U",30,11,"Study","Study Phase","",5460,"",NA
"5eeaff91fd89901efebf84b4",5,"Read Recog","TEMPERATURE","MORNING","Study1","U",33,22,"Study","Study Phase","",6152,"",NA
"5eeaff91fd89901efebf84b4",5,"Read Recog","GIVE","STEAK","Study1","U",23,14,"Study","Study Phase","",5669,"",NA
"5eeaff91fd89901efebf84b4",5,"Read Recog","LISTEN","FICTION","Study1","U",29,15,"Study","Study Phase","",9285,"",NA
"5eeaff91fd89901efebf84b4",5,"Read Recog","AFFECTION","LOVE","Study1","F",16,21,"Study","Study Phase","",3381,"",NA
"5eeaff91fd89901efebf84b4",5,"Read Recog","MULE","DONKEY","Study1","F",15,23,"Study","Study Phase","",2903,"",NA
"5eeaff91fd89901efebf84b4",5,"Read Recog","MAZE","PHONE","Study1","U",27,10,"Study","Study Phase","",5301,"",NA
"5eeaff91fd89901efebf84b4",5,"Read Recog","CRACKLE","ELECTION","Study1","U",24,27,"Study","Study Phase","",8479,"",NA
"5eeaff91fd89901efebf84b4",5,"Read Recog","TUNA","FISH","Study1","F",20,24,"Study","Study Phase","",1493,"",NA
"5eeaff91fd89901efebf84b4",5,"Read Recog","SOON","BELT","Study1","U",31,17,"Study","Study Phase","",4075,"",NA
"5eeaff91fd89901efebf84b4",5,"Read Recog","MIRROR","MAROON","Study1","U",21,16,"Study","Study Phase","",5918,"",NA
"5eeaff91fd89901efebf84b4",5,"Read Recog","SIGN","TICK","Study1","U",32,36,"Study","Study Phase","",4254,"",NA
"5eeaff91fd89901efebf84b4",5,"Read Recog","FUZZY","BANG","Study1","U",35,25,"Study","Study Phase","",5115,"",NA
"5eeaff91fd89901efebf84b4",5,"Read Recog","WORD","SENTENCE","Study1","F",12,30,"Study","Study Phase","",2804,"",NA
"5eeaff91fd89901efebf84b4",5,"Read Recog","NAP","SLEEP","Study1","F",14,31,"Study","Study Phase","",8669,"",NA
"5eeaff91fd89901efebf84b4",5,"Read Recog","ORCHID","FLOWER","Study1","F",19,35,"Study","Study Phase","",2533,"",NA
"5eeaff91fd89901efebf84b4",5,"Read Recog","ROOT","PLANT","Study1","F",10,32,"Study","Study Phase","",2359,"",NA
"5eeaff91fd89901efebf84b4",5,"Read Recog","VEHICLE","CHARM","Study1","U",25,20,"Study","Study Phase","",4585,"",NA
"5eeaff91fd89901efebf84b4",5,"Read Recog","SWAN","BIRD","Study1","F",11,26,"Study","Study Phase","",2936,"",NA
"5eeaff91fd89901efebf84b4",5,"Read Recog","SHELL","SHAKE","Study1","U",28,28,"Study","Study Phase","",7592,"",NA
"5eeaff91fd89901efebf84b4",5,"Read Recog","SCALP","HEAD","Study1","F",8,33,"Study","Study Phase","",6737,"",NA
"5f69a3c91c1e25193e3f9c7b",7,"Read Recog","HORNET","STING","Study2","F",15,16,"Study","Study Phase","",1200,"",NA
"5f69a3c91c1e25193e3f9c7b",7,"Read Recog","FEUD","FIGHT","Study2","F",16,9,"Study","Study Phase","",1525,"",NA
"5f69a3c91c1e25193e3f9c7b",7,"Read Recog","SICK","HIDE","Study2","U",30,35,"Study","Study Phase","",2183,"",NA
"5f69a3c91c1e25193e3f9c7b",7,"Read Recog","BENCH","HORN","Study2","U",28,23,"Study","Study Phase","",4860,"",NA
"5f69a3c91c1e25193e3f9c7b",7,"Read Recog","CHISEL","HAMMER","Study2","F",8,10,"Study","Study Phase","",2975,"",NA
"5f69a3c91c1e25193e3f9c7b",7,"Read Recog","CHILL","COLD","Study2","F",17,13,"Study","Study Phase","",1159,"",NA
"5f69a3c91c1e25193e3f9c7b",7,"Read Recog","WASP","BUG","Study2","F",19,14,"Study","Study Phase","",1733,"",NA
"5f69a3c91c1e25193e3f9c7b",7,"Read Recog","DEATH","BUSINESS","Study2","U",29,8,"Study","Study Phase","",2302,"",NA
"5f69a3c91c1e25193e3f9c7b",7,"Read Recog","PUSH","CLUTTER","Study2","U",26,20,"Study","Study Phase","",2078,"",NA
"5f69a3c91c1e25193e3f9c7b",7,"Read Recog","SUGAR","RIDDLE","Study2","U",25,32,"Study","Study Phase","",3146,"",NA
"5f69a3c91c1e25193e3f9c7b",7,"Read Recog","HERD","COW","Study2","F",18,22,"Study","Study Phase","",6828,"",NA
"5f69a3c91c1e25193e3f9c7b",7,"Read Recog","LEAGUE","BASEBALL","Study2","F",14,19,"Study","Study Phase","",4722,"",NA
"5f69a3c91c1e25193e3f9c7b",7,"Read Recog","CACTUS","PLANT","Study2","F",6,33,"Study","Study Phase","",9696,"",NA
"5f69a3c91c1e25193e3f9c7b",7,"Read Recog","DIETARY","SACK","Study2","U",27,31,"Study","Study Phase","",13582,"",NA
"5f69a3c91c1e25193e3f9c7b",7,"Read Recog","INCENSE","SMELL","Study2","F",13,26,"Study","Study Phase","",4223,"",NA
"5f69a3c91c1e25193e3f9c7b",7,"Read Recog","KING","VASE","Study2","U",21,17,"Study","Study Phase","",28971,"",NA
"5f69a3c91c1e25193e3f9c7b",7,"Read Recog","HAPPY","CAR","Study2","U",22,18,"Study","Study Phase","",61947,"",NA
"5f69a3c91c1e25193e3f9c7b",7,"Read Recog","MIRROR","CHILDREN","Study2","U",34,24,"Study","Study Phase","",6873,"",NA
"5f69a3c91c1e25193e3f9c7b",7,"Read Recog","LEASE","TOIL","Study2","U",31,27,"Study","Study Phase","",1133,"",NA
"5f69a3c91c1e25193e3f9c7b",7,"Read Recog","BLAZE","FIRE","Study2","F",11,25,"Study","Study Phase","",9923,"",NA
"5f69a3c91c1e25193e3f9c7b",7,"Read Recog","CHERRY","RED","Study2","F",10,7,"Study","Study Phase","",1449,"",NA
"5f69a3c91c1e25193e3f9c7b",7,"Read Recog","STRONG","ACCIDENT","Study2","U",24,36,"Study","Study Phase","",759,"",NA
"5f69a3c91c1e25193e3f9c7b",7,"Read Recog","ART","WOLF","Study2","U",23,30,"Study","Study Phase","",2573,"",NA
"5f69a3c91c1e25193e3f9c7b",7,"Read Recog","BOTH","OUNCE","Study2","U",32,34,"Study","Study Phase","",8818,"",NA
"5f69a3c91c1e25193e3f9c7b",7,"Read Recog","ATTIRE","CLOTHES","Study2","F",9,28,"Study","Study Phase","",15269,"",NA
"5f69a3c91c1e25193e3f9c7b",7,"Read Recog","CASH","LEG","Study2","U",35,29,"Study","Study Phase","",630,"",NA
"5f69a3c91c1e25193e3f9c7b",7,"Read Recog","BRIDGE","WATER","Study2","F",20,21,"Study","Study Phase","",4450,"",NA
"5f69a3c91c1e25193e3f9c7b",7,"Read Recog","ARTERY","BRONZE","Study2","U",33,15,"Study","Study Phase","",2079,"",NA
"5f69a3c91c1e25193e3f9c7b",7,"Read Recog","CHOP","CUT","Study2","F",7,12,"Study","Study Phase","",602,"",NA
"5f69a3c91c1e25193e3f9c7b",7,"Read Recog","DOCUMENT","PAPER","Study2","F",12,11,"Study","Study Phase","",706,"",NA
"5fc77b5906874103cbfc5a11",5,"Read Recog","LISTEN","FICTION","Study1","U",29,26,"Study","Study Phase","",1413,"",NA
"5fc77b5906874103cbfc5a11",5,"Read Recog","LITTER","TRASH","Study1","F",6,27,"Study","Study Phase","",1469,"",NA
"5fc77b5906874103cbfc5a11",5,"Read Recog","SOON","BELT","Study1","U",31,20,"Study","Study Phase","",1271,"",NA
"5fc77b5906874103cbfc5a11",5,"Read Recog","ROOT","PLANT","Study1","F",10,14,"Study","Study Phase","",1442,"",NA
"5fc77b5906874103cbfc5a11",5,"Read Recog","TEMPERATURE","MORNING","Study1","U",33,23,"Study","Study Phase","",1663,"",NA
"5fc77b5906874103cbfc5a11",5,"Read Recog","WAGE","MONEY","Study1","F",7,22,"Study","Study Phase","",2104,"",NA
"5fc77b5906874103cbfc5a11",5,"Read Recog","HORSE","COW","Study1","F",9,17,"Study","Study Phase","",1725,"",NA
"5fc77b5906874103cbfc5a11",5,"Read Recog","CREDIT","CARD","Study1","F",18,24,"Study","Study Phase","",1708,"",NA
"5fc77b5906874103cbfc5a11",5,"Read Recog","SHELL","SHAKE","Study1","U",28,29,"Study","Study Phase","",1662,"",NA
"5fc77b5906874103cbfc5a11",5,"Read Recog","CAKE","HAND","Study1","U",34,16,"Study","Study Phase","",1342,"",NA
"5fc77b5906874103cbfc5a11",5,"Read Recog","HYGIENE","CLEAN","Study1","F",13,35,"Study","Study Phase","",1380,"",NA
"5fc77b5906874103cbfc5a11",5,"Read Recog","STRETCH","CLOTH","Study1","U",22,18,"Study","Study Phase","",1420,"",NA
"5fc77b5906874103cbfc5a11",5,"Read Recog","WORD","SENTENCE","Study1","F",12,34,"Study","Study Phase","",1659,"",NA
"5fc77b5906874103cbfc5a11",5,"Read Recog","MEAT","KEYS","Study1","U",26,25,"Study","Study Phase","",1408,"",NA
"5fc77b5906874103cbfc5a11",5,"Read Recog","TUNA","FISH","Study1","F",20,30,"Study","Study Phase","",1597,"",NA
"5fc77b5906874103cbfc5a11",5,"Read Recog","NAP","SLEEP","Study1","F",14,12,"Study","Study Phase","",1340,"",NA
"5fc77b5906874103cbfc5a11",5,"Read Recog","GIVE","STEAK","Study1","U",23,31,"Study","Study Phase","",1295,"",NA
"5fc77b5906874103cbfc5a11",5,"Read Recog","MAZE","PHONE","Study1","U",27,32,"Study","Study Phase","",1664,"",NA
"5fc77b5906874103cbfc5a11",5,"Read Recog","SCALP","HEAD","Study1","F",8,28,"Study","Study Phase","",1577,"",NA
"5fc77b5906874103cbfc5a11",5,"Read Recog","MIRROR","MAROON","Study1","U",21,33,"Study","Study Phase","",1474,"",NA
"5fc77b5906874103cbfc5a11",5,"Read Recog","SIGN","TICK","Study1","U",32,21,"Study","Study Phase","",1369,"",NA
"5fc77b5906874103cbfc5a11",5,"Read Recog","VEHICLE","CHARM","Study1","U",25,7,"Study","Study Phase","",1295,"",NA
"5fc77b5906874103cbfc5a11",5,"Read Recog","SIP","DRINK","Study1","F",17,36,"Study","Study Phase","",1230,"",NA
"5fc77b5906874103cbfc5a11",5,"Read Recog","ORCHID","FLOWER","Study1","F",19,13,"Study","Study Phase","",1358,"",NA
"5fc77b5906874103cbfc5a11",5,"Read Recog","CRACKLE","ELECTION","Study1","U",24,19,"Study","Study Phase","",1277,"",NA
"5fc77b5906874103cbfc5a11",5,"Read Recog","FUZZY","BANG","Study1","U",35,15,"Study","Study Phase","",1767,"",NA
"5fc77b5906874103cbfc5a11",5,"Read Recog","SWAN","BIRD","Study1","F",11,9,"Study","Study Phase","",1835,"",NA
"5fc77b5906874103cbfc5a11",5,"Read Recog","AFFECTION","LOVE","Study1","F",16,10,"Study","Study Phase","",1250,"",NA
"5fc77b5906874103cbfc5a11",5,"Read Recog","KEYS","ROD","Study1","U",30,8,"Study","Study Phase","",2216,"",NA
"5fc77b5906874103cbfc5a11",5,"Read Recog","MULE","DONKEY","Study1","F",15,11,"Study","Study Phase","",1450,"",NA
"5fed47cfcb429d79af4f8ded",7,"Read Recog","BENCH","HORN","Study2","U",28,29,"Study","Study Phase","",2226,"",NA
"5fed47cfcb429d79af4f8ded",7,"Read Recog","LEASE","TOIL","Study2","U",31,24,"Study","Study Phase","",2112,"",NA
"5fed47cfcb429d79af4f8ded",7,"Read Recog","SUGAR","RIDDLE","Study2","U",25,36,"Study","Study Phase","",1958,"",NA
"5fed47cfcb429d79af4f8ded",7,"Read Recog","HORNET","STING","Study2","F",15,26,"Study","Study Phase","",2083,"",NA
"5fed47cfcb429d79af4f8ded",7,"Read Recog","HAPPY","CAR","Study2","U",22,10,"Study","Study Phase","",2453,"",NA
"5fed47cfcb429d79af4f8ded",7,"Read Recog","CACTUS","PLANT","Study2","F",6,21,"Study","Study Phase","",1826,"",NA
"5fed47cfcb429d79af4f8ded",7,"Read Recog","MIRROR","CHILDREN","Study2","U",34,7,"Study","Study Phase","",2349,"",NA
"5fed47cfcb429d79af4f8ded",7,"Read Recog","HERD","COW","Study2","F",18,31,"Study","Study Phase","",2063,"",NA
"5fed47cfcb429d79af4f8ded",7,"Read Recog","LEAGUE","BASEBALL","Study2","F",14,17,"Study","Study Phase","",1627,"",NA
"5fed47cfcb429d79af4f8ded",7,"Read Recog","DEATH","BUSINESS","Study2","U",29,13,"Study","Study Phase","",2499,"",NA
"5fed47cfcb429d79af4f8ded",7,"Read Recog","FEUD","FIGHT","Study2","F",16,8,"Study","Study Phase","",2440,"",NA
"5fed47cfcb429d79af4f8ded",7,"Read Recog","WASP","BUG","Study2","F",19,15,"Study","Study Phase","",1986,"",NA
"5fed47cfcb429d79af4f8ded",7,"Read Recog","CHOP","CUT","Study2","F",7,20,"Study","Study Phase","",1715,"",NA
"5fed47cfcb429d79af4f8ded",7,"Read Recog","DIETARY","SACK","Study2","U",27,35,"Study","Study Phase","",3196,"",NA
"5fed47cfcb429d79af4f8ded",7,"Read Recog","ART","WOLF","Study2","U",23,16,"Study","Study Phase","",1756,"",NA
"5fed47cfcb429d79af4f8ded",7,"Read Recog","CHERRY","RED","Study2","F",10,19,"Study","Study Phase","",2364,"",NA
"5fed47cfcb429d79af4f8ded",7,"Read Recog","ARTERY","BRONZE","Study2","U",33,18,"Study","Study Phase","",2674,"",NA
"5fed47cfcb429d79af4f8ded",7,"Read Recog","BOTH","OUNCE","Study2","U",32,33,"Study","Study Phase","",2314,"",NA
"5fed47cfcb429d79af4f8ded",7,"Read Recog","STRONG","ACCIDENT","Study2","U",24,34,"Study","Study Phase","",2317,"",NA
"5fed47cfcb429d79af4f8ded",7,"Read Recog","ATTIRE","CLOTHES","Study2","F",9,28,"Study","Study Phase","",2346,"",NA
"5fed47cfcb429d79af4f8ded",7,"Read Recog","BLAZE","FIRE","Study2","F",11,14,"Study","Study Phase","",1921,"",NA
"5fed47cfcb429d79af4f8ded",7,"Read Recog","CHISEL","HAMMER","Study2","F",8,23,"Study","Study Phase","",1826,"",NA
"5fed47cfcb429d79af4f8ded",7,"Read Recog","KING","VASE","Study2","U",21,30,"Study","Study Phase","",2130,"",NA
"5fed47cfcb429d79af4f8ded",7,"Read Recog","PUSH","CLUTTER","Study2","U",26,32,"Study","Study Phase","",1679,"",NA
"5fed47cfcb429d79af4f8ded",7,"Read Recog","CASH","LEG","Study2","U",35,11,"Study","Study Phase","",1809,"",NA
"5fed47cfcb429d79af4f8ded",7,"Read Recog","BRIDGE","WATER","Study2","F",20,25,"Study","Study Phase","",1977,"",NA
"5fed47cfcb429d79af4f8ded",7,"Read Recog","INCENSE","SMELL","Study2","F",13,9,"Study","Study Phase","",2594,"",NA
"5fed47cfcb429d79af4f8ded",7,"Read Recog","SICK","HIDE","Study2","U",30,12,"Study","Study Phase","",2755,"",NA
"5fed47cfcb429d79af4f8ded",7,"Read Recog","DOCUMENT","PAPER","Study2","F",12,22,"Study","Study Phase","",2574,"",NA
"5fed47cfcb429d79af4f8ded",7,"Read Recog","CHILL","COLD","Study2","F",17,27,"Study","Study Phase","",2250,"",NA
"604633f72d9cdc0a1b04fc3c",5,"Read Recog","VEHICLE","CHARM","Study1","U",25,25,"Study","Study Phase","",1887,"",NA
"604633f72d9cdc0a1b04fc3c",5,"Read Recog","ORCHID","FLOWER","Study1","F",19,11,"Study","Study Phase","",2013,"",NA
"604633f72d9cdc0a1b04fc3c",5,"Read Recog","ROOT","PLANT","Study1","F",10,23,"Study","Study Phase","",1958,"",NA
"604633f72d9cdc0a1b04fc3c",5,"Read Recog","CAKE","HAND","Study1","U",34,10,"Study","Study Phase","",1847,"",NA
"604633f72d9cdc0a1b04fc3c",5,"Read Recog","SCALP","HEAD","Study1","F",8,17,"Study","Study Phase","",2964,"",NA
"604633f72d9cdc0a1b04fc3c",5,"Read Recog","SHELL","SHAKE","Study1","U",28,32,"Study","Study Phase","",3297,"",NA
"604633f72d9cdc0a1b04fc3c",5,"Read Recog","LISTEN","FICTION","Study1","U",29,15,"Study","Study Phase","",1864,"",NA
"604633f72d9cdc0a1b04fc3c",5,"Read Recog","TEMPERATURE","MORNING","Study1","U",33,27,"Study","Study Phase","",2753,"",NA
"604633f72d9cdc0a1b04fc3c",5,"Read Recog","SIGN","TICK","Study1","U",32,21,"Study","Study Phase","",2571,"",NA
"604633f72d9cdc0a1b04fc3c",5,"Read Recog","CRACKLE","ELECTION","Study1","U",24,12,"Study","Study Phase","",1715,"",NA
"604633f72d9cdc0a1b04fc3c",5,"Read Recog","MEAT","KEYS","Study1","U",26,20,"Study","Study Phase","",1954,"",NA
"604633f72d9cdc0a1b04fc3c",5,"Read Recog","MULE","DONKEY","Study1","F",15,26,"Study","Study Phase","",2151,"",NA
"604633f72d9cdc0a1b04fc3c",5,"Read Recog","FUZZY","BANG","Study1","U",35,30,"Study","Study Phase","",1632,"",NA
