Username,ID,ExperimentName,Session,Trial,Date,TimeDif,"Condition Number","Stimuli File","Order File","Condition Description","Condition Notes",Stimuli*Cue,Stimuli*Answer,Stimuli*Shuffle,"Stimuli*Stimuli Notes",Stimuli*Value,Procedure*Item,"Procedure*Trial Type","Procedure*Max Time","Procedure*Min Time",Procedure*Text,"Procedure*Procedure Notes",Procedure*Shuffle,Response*RT,Response*Response,Response*Accuracy,Response*RTfirst,Response*RTlast,Response*strictAcc,Response*lenientAcc,Response*focus,Response*Focus
5d4225e01985380018375d83,qj7g8i54sn,"Mediated Recall_Prolific",1,1,2023-02-05T23:14:25+00:00,19.877899885178,1,versionA_stim.csv,ReadVersion.csv,Read,Read1,,,,,,0,Instruct,-,5,"In this section, you will be presented with a series of word pairs. Please study each word pair! Your memory will be tested!",Initial_Instruct,Instruct1,19549,,,-1,-1,,,,0.745
5d4225e01985380018375d83,qj7g8i54sn,"Mediated Recall_Prolific",1,2,2023-02-05T23:14:28+00:00,3.4634611606598,1,versionA_stim.csv,ReadVersion.csv,Read,Read1,,,,,,0,Instruct,User,-,"You will now begin. Press Enter when you are ready to begin.",,Instruct16,3247,,,-1,-1,,,,1
5d4225e01985380018375d83,qj7g8i54sn,"Mediated Recall_Prolific",1,3,2023-02-05T23:14:33+00:00,5.3502769470215,1,versionA_stim.csv,ReadVersion.csv,Read,Read1,PITCHER,CATCHER,BUFFER1,Buffer,2,3,Study,User,-,,Study/JOL,BUFFER,4978,,,-1,-1,,,,1
5d4225e01985380018375d83,qj7g8i54sn,"Mediated Recall_Prolific",1,4,2023-02-05T23:14:38+00:00,4.1363699436188,1,versionA_stim.csv,ReadVersion.csv,Read,Read1,PEANUT,BUTTER,BUFFER1,Buffer,3,2,Study,User,-,,Study/JOL,BUFFER,3938,,,-1,-1,,,,1
5d4225e01985380018375d83,qj7g8i54sn,"Mediated Recall_Prolific",1,5,2023-02-05T23:14:41+00:00,3.2782330513,1,versionA_stim.csv,ReadVersion.csv,Read,Read1,SPACE,JAM,BUFFER1,Buffer,5,4,Study,User,-,,Study/JOL,BUFFER,3033,,,-1,-1,,,,1
5d4225e01985380018375d83,qj7g8i54sn,"Mediated Recall_Prolific",1,6,2023-02-05T23:14:43+00:00,2.6004509925842,1,versionA_stim.csv,ReadVersion.csv,Read,Read1,SCARE,FRIGHT,BUFFER1,Buffer,4,6,Study,User,-,,Study/JOL,BUFFER,2347,,,-1,-1,,,,1
5d4225e01985380018375d83,qj7g8i54sn,"Mediated Recall_Prolific",1,7,2023-02-05T23:14:46+00:00,2.4792439937592,1,versionA_stim.csv,ReadVersion.csv,Read,Read1,TREES,GREEN,BUFFER1,Buffer,1,5,Study,User,-,,Study/JOL,BUFFER,2229,,,-1,-1,,,,1
5d4225e01985380018375d83,qj7g8i54sn,"Mediated Recall_Prolific",1,8,2023-02-05T23:14:49+00:00,2.8335809707642,1,versionA_stim.csv,ReadVersion.csv,Read,Read1,LITTER,TRASH,Study1,F,21,17,Study,User,-,,Study/JOL,"Study Phase",2574,,,-1,-1,,,,1
5d4225e01985380018375d83,qj7g8i54sn,"Mediated Recall_Prolific",1,9,2023-02-05T23:14:51+00:00,2.4247689247131,1,versionA_stim.csv,ReadVersion.csv,Read,Read1,SWAN,BIRD,Study1,F,26,49,Study,User,-,,Study/JOL,"Study Phase",2176,,,-1,-1,,,,1
5d4225e01985380018375d83,qj7g8i54sn,"Mediated Recall_Prolific",1,10,2023-02-05T23:14:56+00:00,4.8217260837555,1,versionA_stim.csv,ReadVersion.csv,Read,Read1,SIGN,TICK,Study1,U,47,50,Study,User,-,,Study/JOL,"Study Phase",4542,,,-1,-1,,,,1
5d4225e01985380018375d83,qj7g8i54sn,"Mediated Recall_Prolific",1,11,2023-02-05T23:15:00+00:00,3.9678120613098,1,versionA_stim.csv,ReadVersion.csv,Read,Read1,MAZE,PHONE,Study1,U,42,40,Study,User,-,,Study/JOL,"Study Phase",3702,,,-1,-1,,,,1
5d4225e01985380018375d83,qj7g8i54sn,"Mediated Recall_Prolific",1,12,2023-02-05T23:15:03+00:00,3.2657840251923,1,versionA_stim.csv,ReadVersion.csv,Read,Read1,VEHICLE,CHARM,Study1,U,40,19,Study,User,-,,Study/JOL,"Study Phase",3012,,,-1,-1,,,,1
5d4225e01985380018375d83,qj7g8i54sn,"Mediated Recall_Prolific",1,13,2023-02-05T23:15:06+00:00,2.7208960056305,1,versionA_stim.csv,ReadVersion.csv,Read,Read1,KEYS,ROD,Study1,U,45,22,Study,User,-,,Study/JOL,"Study Phase",2474,,,-1,-1,,,,1
5d4225e01985380018375d83,qj7g8i54sn,"Mediated Recall_Prolific",1,14,2023-02-05T23:15:08+00:00,1.7736690044403,1,versionA_stim.csv,ReadVersion.csv,Read,Read1,TUNA,FISH,Study1,F,35,24,Study,User,-,,Study/JOL,"Study Phase",1529,,,-1,-1,,,,1
5d4225e01985380018375d83,qj7g8i54sn,"Mediated Recall_Prolific",1,15,2023-02-05T23:15:10+00:00,1.9418499469757,1,versionA_stim.csv,ReadVersion.csv,Read,Read1,WORD,SENTENCE,Study1,F,27,42,Study,User,-,,Study/JOL,"Study Phase",1701,,,-1,-1,,,,1
5d4225e01985380018375d83,qj7g8i54sn,"Mediated Recall_Prolific",1,16,2023-02-05T23:15:12+00:00,2.4325430393219,1,versionA_stim.csv,ReadVersion.csv,Read,Read1,TEMPERATURE,MORNING,Study1,U,48,31,Study,User,-,,Study/JOL,"Study Phase",2180,,,-1,-1,,,,1
5d4225e01985380018375d83,qj7g8i54sn,"Mediated Recall_Prolific",1,17,2023-02-05T23:15:14+00:00,2.3082559108734,1,versionA_stim.csv,ReadVersion.csv,Read,Read1,CIRCLE,DANCE,Study1,M,13,26,Study,User,-,,Study/JOL,"Study Phase",2057,,,-1,-1,,,,1
5d4225e01985380018375d83,qj7g8i54sn,"Mediated Recall_Prolific",1,18,2023-02-05T23:15:17+00:00,2.6577999591827,1,versionA_stim.csv,ReadVersion.csv,Read,Read1,STRETCH,CLOTH,Study1,U,37,20,Study,User,-,,Study/JOL,"Study Phase",2440,,,-1,-1,,,,1
5d4225e01985380018375d83,qj7g8i54sn,"Mediated Recall_Prolific",1,19,2023-02-05T23:15:19+00:00,1.8139040470123,1,versionA_stim.csv,ReadVersion.csv,Read,Read1,ORCHID,FLOWER,Study1,F,34,25,Study,User,-,,Study/JOL,"Study Phase",1570,,,-1,-1,,,,1
5d4225e01985380018375d83,qj7g8i54sn,"Mediated Recall_Prolific",1,20,2023-02-05T23:15:21+00:00,1.7374739646912,1,versionA_stim.csv,ReadVersion.csv,Read,Read1,BAT,BOUNCE,Study1,M,12,7,Study,User,-,,Study/JOL,"Study Phase",1500,,,-1,-1,,,,1
5d4225e01985380018375d83,qj7g8i54sn,"Mediated Recall_Prolific",1,21,2023-02-05T23:15:23+00:00,2.0256950855255,1,versionA_stim.csv,ReadVersion.csv,Read,Read1,MULE,DONKEY,Study1,F,30,37,Study,User,-,,Study/JOL,"Study Phase",1747,,,-1,-1,,,,1
5d4225e01985380018375d83,qj7g8i54sn,"Mediated Recall_Prolific",1,22,2023-02-05T23:15:26+00:00,3.2004179954529,1,versionA_stim.csv,ReadVersion.csv,Read,Read1,CRACKLE,ELECTION,Study1,U,39,15,Study,User,-,,Study/JOL,"Study Phase",2902,,,-1,-1,,,,1
5d4225e01985380018375d83,qj7g8i54sn,"Mediated Recall_Prolific",1,23,2023-02-05T23:15:27+00:00,1.4405529499054,1,versionA_stim.csv,ReadVersion.csv,Read,Read1,CREDIT,CARD,Study1,F,33,18,Study,User,-,,Study/JOL,"Study Phase",1184,,,-1,-1,,,,1
5d4225e01985380018375d83,qj7g8i54sn,"Mediated Recall_Prolific",1,24,2023-02-05T23:15:29+00:00,1.3604130744934,1,versionA_stim.csv,ReadVersion.csv,Read,Read1,HYGIENE,CLEAN,Study1,F,28,39,Study,User,-,,Study/JOL,"Study Phase",1110,,,-1,-1,,,,1
5d4225e01985380018375d83,qj7g8i54sn,"Mediated Recall_Prolific",1,25,2023-02-05T23:15:31+00:00,1.8690738677979,1,versionA_stim.csv,ReadVersion.csv,Read,Read1,WEDDING,FINGER,Study1,M,17,28,Study,User,-,,Study/JOL,"Study Phase",1619,,,-1,-1,,,,1
5d4225e01985380018375d83,qj7g8i54sn,"Mediated Recall_Prolific",1,26,2023-02-05T23:15:32+00:00,1.8100621700287,1,versionA_stim.csv,ReadVersion.csv,Read,Read1,CRY,BOTTLE,Study1,M,16,9,Study,User,-,,Study/JOL,"Study Phase",1567,,,-1,-1,,,,1
5d4225e01985380018375d83,qj7g8i54sn,"Mediated Recall_Prolific",1,27,2023-02-05T23:15:34+00:00,1.7263288497925,1,versionA_stim.csv,ReadVersion.csv,Read,Read1,GIVE,STEAK,Study1,U,38,21,Study,User,-,,Study/JOL,"Study Phase",1485,,,-1,-1,,,,1
5d4225e01985380018375d83,qj7g8i54sn,"Mediated Recall_Prolific",1,28,2023-02-05T23:15:36+00:00,1.5810091495514,1,versionA_stim.csv,ReadVersion.csv,Read,Read1,HORSE,WHEEL,Study1,M,14,43,Study,User,-,,Study/JOL,"Study Phase",1327,,,-1,-1,,,,1
5d4225e01985380018375d83,qj7g8i54sn,"Mediated Recall_Prolific",1,29,2023-02-05T23:15:38+00:00,1.9222500324249,1,versionA_stim.csv,ReadVersion.csv,Read,Read1,WAR,QUIET,Study1,M,8,8,Study,User,-,,Study/JOL,"Study Phase",1674,,,-1,-1,,,,1
5d4225e01985380018375d83,qj7g8i54sn,"Mediated Recall_Prolific",1,30,2023-02-05T23:15:39+00:00,1.6895740032196,1,versionA_stim.csv,ReadVersion.csv,Read,Read1,BIRTHDAY,PIE,Study1,M,9,12,Study,User,-,,Study/JOL,"Study Phase",1443,,,-1,-1,,,,1
5d4225e01985380018375d83,qj7g8i54sn,"Mediated Recall_Prolific",1,31,2023-02-05T23:15:49+00:00,9.9847688674927,1,versionA_stim.csv,ReadVersion.csv,Read,Read1,HARD,COTTON,Study1,M,20,34,Study,User,-,,Study/JOL,"Study Phase",9588,,,-1,-1,,,,0.55
5d4225e01985380018375d83,qj7g8i54sn,"Mediated Recall_Prolific",1,32,2023-02-05T23:15:50+00:00,1.1080770492554,1,versionA_stim.csv,ReadVersion.csv,Read,Read1,ROUGH,SILK,Study1,M,10,44,Study,User,-,,Study/JOL,"Study Phase",877,,,-1,-1,,,,1
5d4225e01985380018375d83,qj7g8i54sn,"Mediated Recall_Prolific",1,33,2023-02-05T23:15:52+00:00,1.3714010715485,1,versionA_stim.csv,ReadVersion.csv,Read,Read1,CAKE,HAND,Study1,U,49,30,Study,User,-,,Study/JOL,"Study Phase",982,,,-1,-1,,,,1
5d4225e01985380018375d83,qj7g8i54sn,"Mediated Recall_Prolific",1,34,2023-02-05T23:15:53+00:00,1.5799088478088,1,versionA_stim.csv,ReadVersion.csv,Read,Read1,CEILING,CARPET,Study1,M,15,47,Study,User,-,,Study/JOL,"Study Phase",1322,,,-1,-1,,,,1
5d4225e01985380018375d83,qj7g8i54sn,"Mediated Recall_Prolific",1,35,2023-02-05T23:15:55+00:00,1.7591609954834,1,versionA_stim.csv,ReadVersion.csv,Read,Read1,LISTEN,FICTION,Study1,U,44,29,Study,User,-,,Study/JOL,"Study Phase",1459,,,-1,-1,,,,1
5d4225e01985380018375d83,qj7g8i54sn,"Mediated Recall_Prolific",1,36,2023-02-05T23:15:57+00:00,1.7370901107788,1,versionA_stim.csv,ReadVersion.csv,Read,Read1,MEAT,KEYS,Study1,U,41,13,Study,User,-,,Study/JOL,"Study Phase",1471,,,-1,-1,,,,1
5d4225e01985380018375d83,qj7g8i54sn,"Mediated Recall_Prolific",1,37,2023-02-05T23:15:58+00:00,1.3788230419159,1,versionA_stim.csv,ReadVersion.csv,Read,Read1,FUZZY,BANG,Study1,U,50,32,Study,User,-,,Study/JOL,"Study Phase",1116,,,-1,-1,,,,1
5d4225e01985380018375d83,qj7g8i54sn,"Mediated Recall_Prolific",1,38,2023-02-05T23:16:00+00:00,1.7004239559174,1,versionA_stim.csv,ReadVersion.csv,Read,Read1,NAP,SLEEP,Study1,F,29,27,Study,User,-,,Study/JOL,"Study Phase",1370,,,-1,-1,,,,1
5d4225e01985380018375d83,qj7g8i54sn,"Mediated Recall_Prolific",1,39,2023-02-05T23:16:01+00:00,1.4233648777008,1,versionA_stim.csv,ReadVersion.csv,Read,Read1,SOON,BELT,Study1,U,46,23,Study,User,-,,Study/JOL,"Study Phase",1161,,,-1,-1,,,,1
5d4225e01985380018375d83,qj7g8i54sn,"Mediated Recall_Prolific",1,40,2023-02-05T23:16:03+00:00,2.0889041423798,1,versionA_stim.csv,ReadVersion.csv,Read,Read1,MIRROR,MAROON,Study1,U,36,14,Study,User,-,,Study/JOL,"Study Phase",1834,,,-1,-1,,,,1
5d4225e01985380018375d83,qj7g8i54sn,"Mediated Recall_Prolific",1,41,2023-02-05T23:16:05+00:00,1.3706560134888,1,versionA_stim.csv,ReadVersion.csv,Read,Read1,MULE,DONKEY,Study1,F,24,46,Study,User,-,,Study/JOL,"Study Phase",1114,,,-1,-1,,,,1
5d4225e01985380018375d83,qj7g8i54sn,"Mediated Recall_Prolific",1,42,2023-02-05T23:16:06+00:00,0.9978928565979,1,versionA_stim.csv,ReadVersion.csv,Read,Read1,SHELL,SHAKE,Study1,U,43,16,Study,User,-,,Study/JOL,"Study Phase",739,,,-1,-1,,,,1
5d4225e01985380018375d83,qj7g8i54sn,"Mediated Recall_Prolific",1,43,2023-02-05T23:16:07+00:00,1.4115841388702,1,versionA_stim.csv,ReadVersion.csv,Read,Read1,SCALP,HEAD,Study1,F,23,10,Study,User,-,,Study/JOL,"Study Phase",1160,,,-1,-1,,,,1
5d4225e01985380018375d83,qj7g8i54sn,"Mediated Recall_Prolific",1,44,2023-02-05T23:16:08+00:00,1.1854779720306,1,versionA_stim.csv,ReadVersion.csv,Read,Read1,WAGE,MONEY,Study1,F,22,11,Study,User,-,,Study/JOL,"Study Phase",816,,,-1,-1,,,,1
5d4225e01985380018375d83,qj7g8i54sn,"Mediated Recall_Prolific",1,45,2023-02-05T23:16:10+00:00,1.2612769603729,1,versionA_stim.csv,ReadVersion.csv,Read,Read1,AFFECTION,LOVE,Study1,F,31,36,Study,User,-,,Study/JOL,"Study Phase",1010,,,-1,-1,,,,1
5d4225e01985380018375d83,qj7g8i54sn,"Mediated Recall_Prolific",1,46,2023-02-05T23:16:11+00:00,1.2214250564575,1,versionA_stim.csv,ReadVersion.csv,Read,Read1,ROOT,PLANT,Study1,F,25,51,Study,User,-,,Study/JOL,"Study Phase",986,,,-1,-1,,,,1
5d4225e01985380018375d83,qj7g8i54sn,"Mediated Recall_Prolific",1,47,2023-02-05T23:16:12+00:00,1.4599359035492,1,versionA_stim.csv,ReadVersion.csv,Read,Read1,SIP,DRINK,Study1,F,32,38,Study,User,-,,Study/JOL,"Study Phase",1175,,,-1,-1,,,,1
5d4225e01985380018375d83,qj7g8i54sn,"Mediated Recall_Prolific",1,48,2023-02-05T23:16:14+00:00,1.2758741378784,1,versionA_stim.csv,ReadVersion.csv,Read,Read1,TREE,SYRUP,Study1,M,11,35,Study,User,-,,Study/JOL,"Study Phase",1022,,,-1,-1,,,,1
5d4225e01985380018375d83,qj7g8i54sn,"Mediated Recall_Prolific",1,49,2023-02-05T23:16:15+00:00,1.3090538978577,1,versionA_stim.csv,ReadVersion.csv,Read,Read1,TOOTH,HAIR,Study1,M,19,33,Study,User,-,,Study/JOL,"Study Phase",1051,,,-1,-1,,,,1
5d4225e01985380018375d83,qj7g8i54sn,"Mediated Recall_Prolific",1,50,2023-02-05T23:16:17+00:00,1.5910360813141,1,versionA_stim.csv,ReadVersion.csv,Read,Read1,LION,STRIPES,Study1,M,6,45,Study,User,-,,Study/JOL,"Study Phase",1306,,,-1,-1,,,,1
5d4225e01985380018375d83,qj7g8i54sn,"Mediated Recall_Prolific",1,51,2023-02-05T23:16:18+00:00,1.1846950054169,1,versionA_stim.csv,ReadVersion.csv,Read,Read1,DAY,DARK,Study1,M,18,41,Study,User,-,,Study/JOL,"Study Phase",925,,,-1,-1,,,,1
5d4225e01985380018375d83,qj7g8i54sn,"Mediated Recall_Prolific",1,52,2023-02-05T23:16:19+00:00,1.3714458942413,1,versionA_stim.csv,ReadVersion.csv,Read,Read1,BEACH,BOX,Study1,M,7,48,Study,User,-,,Study/JOL,"Study Phase",1119,,,-1,-1,,,,1
5d4225e01985380018375d83,qj7g8i54sn,"Mediated Recall_Prolific",1,53,2023-02-05T23:16:30+00:00,10.520870923996,1,versionA_stim.csv,ReadVersion.csv,Read,Read1,SPRING,MARCH,BUFFER3,Buffer,59,59,Study,User,-,,Study/JOL,BUFFER2,10119,,,-1,-1,,,,1
5d4225e01985380018375d83,qj7g8i54sn,"Mediated Recall_Prolific",1,54,2023-02-05T23:16:31+00:00,1.0708770751953,1,versionA_stim.csv,ReadVersion.csv,Read,Read1,THING,STUFF,BUFFER2,Buffer,55,53,Study,User,-,,Study/JOL,BUFFER2,814,,,-1,-1,,,,1
5d4225e01985380018375d83,qj7g8i54sn,"Mediated Recall_Prolific",1,55,2023-02-05T23:16:32+00:00,1.4262800216675,1,versionA_stim.csv,ReadVersion.csv,Read,Read1,MONTH,YEAR,BUFFER3,Buffer,57,60,Study,User,-,,Study/JOL,BUFFER2,1164,,,-1,-1,,,,1
5d4225e01985380018375d83,qj7g8i54sn,"Mediated Recall_Prolific",1,56,2023-02-05T23:16:33+00:00,1.0570890903473,1,versionA_stim.csv,ReadVersion.csv,Read,Read1,NOODLE,STRING,BUFFER4,Buffer,107,108,Study,User,-,,Study/JOL,BUFFER2,815,,,-1,-1,,,,1
5d4225e01985380018375d83,qj7g8i54sn,"Mediated Recall_Prolific",1,57,2023-02-05T23:16:35+00:00,1.8654329776764,1,versionA_stim.csv,ReadVersion.csv,Read,Read1,TOOL,SHED,BUFFER3,Buffer,58,58,Study,User,-,,Study/JOL,BUFFER2,1594,,,-1,-1,,,,1
5d4225e01985380018375d83,qj7g8i54sn,"Mediated Recall_Prolific",1,58,2023-02-05T23:16:37+00:00,2.0845348834991,1,versionA_stim.csv,ReadVersion.csv,Read,Read1,,,,,,0,Instruct,User,-,"You have completed this section. Please press Enter.",Filler_Instruction,Instruct2,1838,,,-1,-1,,,,1
5d4225e01985380018375d83,qj7g8i54sn,"Mediated Recall_Prolific",1,59,2023-02-05T23:18:37+00:00,120.40220308304,1,versionA_stim.csv,ReadVersion.csv,Read,Read1,,,,,,0,FreeRecall,120,120,"Please list the 50 US states in alphabetical order. The task will automatically advance to the next screen after two minutes.",,Filler1,120015,"Alabama, Alaska, Arizona, Arkansas, California, Colorado, Connecticut, Delaware, Florida, Georgia, Hawaii, Idaho, Illinois, Indiana, Iowa, ",0,18331,118382,0,0,,0.902
5d4225e01985380018375d83,qj7g8i54sn,"Mediated Recall_Prolific",1,60,2023-02-05T23:18:56+00:00,18.8399310112,1,versionA_stim.csv,ReadVersion.csv,Read,Read1,,,,,,0,Instruct,-,10,"You will now be presented with the first word from each of the previously studied item pairs. Please type the missing word. If you do not know the word, you may guess or press Enter to skip forward to the next pair.",,Instruct3,18471,,,-1,-1,,,,0.855
5d4225e01985380018375d83,qj7g8i54sn,"Mediated Recall_Prolific",1,61,2023-02-05T23:19:02+00:00,5.6898319721222,1,versionA_stim.csv,ReadVersion.csv,Read,Read1,MULE,DONKEY,Study1,F,24,46,Test,User,-,,Recall,Recall1,5278,Donkey,100,3384,3924,1,1,,1
5d4225e01985380018375d83,qj7g8i54sn,"Mediated Recall_Prolific",1,62,2023-02-05T23:19:08+00:00,5.715735912323,1,versionA_stim.csv,ReadVersion.csv,Read,Read1,MULE,DONKEY,Study1,F,30,37,Test,User,-,,Recall,Recall1,5323,DONKEY,100,2996,4737,1,1,,1
5d4225e01985380018375d83,qj7g8i54sn,"Mediated Recall_Prolific",1,63,2023-02-05T23:19:14+00:00,5.7795009613037,1,versionA_stim.csv,ReadVersion.csv,Read,Read1,LISTEN,FICTION,Study1,U,44,29,Test,User,-,,Recall,Recall1,5406,Sound,33.333333333333,4745,5251,0,0,,1
5d4225e01985380018375d83,qj7g8i54sn,"Mediated Recall_Prolific",1,64,2023-02-05T23:19:20+00:00,6.5242199897766,1,versionA_stim.csv,ReadVersion.csv,Read,Read1,WAR,QUIET,Study1,M,8,8,Test,User,-,,Recall,Recall1,6160,base,22.222222222222,5685,6005,0,0,,1
5d4225e01985380018375d83,qj7g8i54sn,"Mediated Recall_Prolific",1,65,2023-02-05T23:19:24+00:00,3.9021220207214,1,versionA_stim.csv,ReadVersion.csv,Read,Read1,SWAN,BIRD,Study1,F,26,49,Test,User,-,,Recall,Recall1,3642,duck,25,3132,3406,0,0,,1
5d4225e01985380018375d83,qj7g8i54sn,"Mediated Recall_Prolific",1,66,2023-02-05T23:19:29+00:00,4.9043710231781,1,versionA_stim.csv,ReadVersion.csv,Read,Read1,MIRROR,MAROON,Study1,U,36,14,Test,User,-,,Recall,Recall1,4646,minor,36.363636363636,4069,4490,0,0,,1
5d4225e01985380018375d83,qj7g8i54sn,"Mediated Recall_Prolific",1,67,2023-02-05T23:19:30+00:00,1.473836183548,1,versionA_stim.csv,ReadVersion.csv,Read,Read1,TUNA,FISH,Study1,F,35,24,Test,User,-,,Recall,Recall1,1229,fish,100,805,1044,1,1,,1
5d4225e01985380018375d83,qj7g8i54sn,"Mediated Recall_Prolific",1,68,2023-02-05T23:19:32+00:00,1.7664687633514,1,versionA_stim.csv,ReadVersion.csv,Read,Read1,ORCHID,FLOWER,Study1,F,34,25,Test,User,-,,Recall,Recall1,1496,flower,100,967,1393,1,1,,1
5d4225e01985380018375d83,qj7g8i54sn,"Mediated Recall_Prolific",1,69,2023-02-05T23:19:41+00:00,8.5858030319214,1,versionA_stim.csv,ReadVersion.csv,Read,Read1,CIRCLE,DANCE,Study1,M,13,26,Test,User,-,,Recall,Recall1,8172,shape,40,7668,8019,0,0,,1
5d4225e01985380018375d83,qj7g8i54sn,"Mediated Recall_Prolific",1,70,2023-02-05T23:19:43+00:00,2.4790771007538,1,versionA_stim.csv,ReadVersion.csv,Read,Read1,CRY,BOTTLE,Study1,M,16,9,Test,User,-,,Recall,Recall1,2122,sad,0,1786,1989,0,0,,1
5d4225e01985380018375d83,qj7g8i54sn,"Mediated Recall_Prolific",1,71,2023-02-05T23:19:48+00:00,4.421679019928,1,versionA_stim.csv,ReadVersion.csv,Read,Read1,WORD,SENTENCE,Study1,F,27,42,Test,User,-,,Recall,Recall1,4156,"sentence ",100,1356,3906,1,1,,1
5d4225e01985380018375d83,qj7g8i54sn,"Mediated Recall_Prolific",1,72,2023-02-05T23:19:50+00:00,2.7069759368896,1,versionA_stim.csv,ReadVersion.csv,Read,Read1,ROUGH,SILK,Study1,M,10,44,Test,User,-,,Recall,Recall1,2441,estimate,33.333333333333,1585,2269,0,0,,1
5d4225e01985380018375d83,qj7g8i54sn,"Mediated Recall_Prolific",1,73,2023-02-05T23:19:53+00:00,3.1479849815369,1,versionA_stim.csv,ReadVersion.csv,Read,Read1,SHELL,SHAKE,Study1,U,43,16,Test,User,-,,Recall,Recall1,2836,turtle,18.181818181818,2223,2716,0,0,,1
5d4225e01985380018375d83,qj7g8i54sn,"Mediated Recall_Prolific",1,74,2023-02-05T23:19:56+00:00,2.9329800605774,1,versionA_stim.csv,ReadVersion.csv,Read,Read1,KEYS,ROD,Study1,U,45,22,Test,User,-,,Recall,Recall1,2672,door,28.571428571429,2231,2553,0,0,,1
5d4225e01985380018375d83,qj7g8i54sn,"Mediated Recall_Prolific",1,75,2023-02-05T23:19:59+00:00,2.6078219413757,1,versionA_stim.csv,ReadVersion.csv,Read,Read1,BEACH,BOX,Study1,M,7,48,Test,User,-,,Recall,Recall1,2348,water,0,1033,2272,0,0,,1
5d4225e01985380018375d83,qj7g8i54sn,"Mediated Recall_Prolific",1,76,2023-02-05T23:20:01+00:00,1.6455340385437,1,versionA_stim.csv,ReadVersion.csv,Read,Read1,WEDDING,FINGER,Study1,M,17,28,Test,User,-,,Recall,Recall1,1400,ring,60,1077,1277,0,0,,1
5d4225e01985380018375d83,qj7g8i54sn,"Mediated Recall_Prolific",1,77,2023-02-05T23:20:03+00:00,2.0918769836426,1,versionA_stim.csv,ReadVersion.csv,Read,Read1,NAP,SLEEP,Study1,F,29,27,Test,User,-,,Recall,Recall1,1808,sleep,100,1214,1609,1,1,,1
5d4225e01985380018375d83,qj7g8i54sn,"Mediated Recall_Prolific",1,78,2023-02-05T23:20:05+00:00,2.234452009201,1,versionA_stim.csv,ReadVersion.csv,Read,Read1,ROOT,PLANT,Study1,F,25,51,Test,User,-,,Recall,Recall1,1981,tree,22.222222222222,1563,1925,0,0,,1
5d4225e01985380018375d83,qj7g8i54sn,"Mediated Recall_Prolific",1,79,2023-02-05T23:20:13+00:00,7.8458731174469,1,versionA_stim.csv,ReadVersion.csv,Read,Read1,CAKE,HAND,Study1,U,49,30,Test,User,-,,Recall,Recall1,7435,bake,25,6743,7320,0,0,,1
5d4225e01985380018375d83,qj7g8i54sn,"Mediated Recall_Prolific",1,80,2023-02-05T23:20:15+00:00,1.9309749603271,1,versionA_stim.csv,ReadVersion.csv,Read,Read1,CREDIT,CARD,Study1,F,33,18,Test,User,-,,Recall,Recall1,1676,card,100,1060,1311,1,1,,1
5d4225e01985380018375d83,qj7g8i54sn,"Mediated Recall_Prolific",1,81,2023-02-05T23:20:17+00:00,2.1505219936371,1,versionA_stim.csv,ReadVersion.csv,Read,Read1,HYGIENE,CLEAN,Study1,F,28,39,Test,User,-,,Recall,Recall1,1897,wash,22.222222222222,1534,1728,0,0,,1
5d4225e01985380018375d83,qj7g8i54sn,"Mediated Recall_Prolific",1,82,2023-02-05T23:20:19+00:00,2.0295310020447,1,versionA_stim.csv,ReadVersion.csv,Read,Read1,GIVE,STEAK,Study1,U,38,21,Test,User,-,,Recall,Recall1,1767,take,66.666666666667,1470,1663,0,0,,1
5d4225e01985380018375d83,qj7g8i54sn,"Mediated Recall_Prolific",1,83,2023-02-05T23:20:23+00:00,3.61705493927,1,versionA_stim.csv,ReadVersion.csv,Read,Read1,MEAT,KEYS,Study1,U,41,13,Test,User,-,,Recall,Recall1,3338,ball,0,2808,3193,0,0,,1
5d4225e01985380018375d83,qj7g8i54sn,"Mediated Recall_Prolific",1,84,2023-02-05T23:20:25+00:00,2.3842809200287,1,versionA_stim.csv,ReadVersion.csv,Read,Read1,MAZE,PHONE,Study1,U,42,40,Test,User,-,,Recall,Recall1,2062,runner,36.363636363636,1490,1943,0,0,,1
5d4225e01985380018375d83,qj7g8i54sn,"Mediated Recall_Prolific",1,85,2023-02-05T23:20:28+00:00,3.1890861988068,1,versionA_stim.csv,ReadVersion.csv,Read,Read1,TREE,SYRUP,Study1,M,11,35,Test,User,-,,Recall,Recall1,2931,green,20,2324,2755,0,0,,1
5d4225e01985380018375d83,qj7g8i54sn,"Mediated Recall_Prolific",1,86,2023-02-05T23:20:37+00:00,8.7086749076843,1,versionA_stim.csv,ReadVersion.csv,Read,Read1,STRETCH,CLOTH,Study1,U,37,20,Test,User,-,,Recall,Recall1,8318,fit,25,5890,8220,0,0,,1
5d4225e01985380018375d83,qj7g8i54sn,"Mediated Recall_Prolific",1,87,2023-02-05T23:20:39+00:00,2.5808539390564,1,versionA_stim.csv,ReadVersion.csv,Read,Read1,WAGE,MONEY,Study1,F,22,11,Test,User,-,,Recall,Recall1,2330,cash,0,1945,2150,0,0,,1
5d4225e01985380018375d83,qj7g8i54sn,"Mediated Recall_Prolific",1,88,2023-02-05T23:20:41+00:00,1.7155289649963,1,versionA_stim.csv,ReadVersion.csv,Read,Read1,BAT,BOUNCE,Study1,M,12,7,Test,User,-,,Recall,Recall1,1456,ball,20,1018,1291,0,0,,1
5d4225e01985380018375d83,qj7g8i54sn,"Mediated Recall_Prolific",1,89,2023-02-05T23:20:43+00:00,2.1099870204926,1,versionA_stim.csv,ReadVersion.csv,Read,Read1,TEMPERATURE,MORNING,Study1,U,48,31,Test,User,-,,Recall,Recall1,1789,warm,18.181818181818,1344,1662,0,0,,1
5d4225e01985380018375d83,qj7g8i54sn,"Mediated Recall_Prolific",1,90,2023-02-05T23:20:53+00:00,9.3182380199432,1,versionA_stim.csv,ReadVersion.csv,Read,Read1,HORSE,WHEEL,Study1,M,14,43,Test,User,-,,Recall,Recall1,8940,animal,18.181818181818,8386,8778,0,0,,0.625
5d4225e01985380018375d83,qj7g8i54sn,"Mediated Recall_Prolific",1,91,2023-02-05T23:20:55+00:00,2.3407249450684,1,versionA_stim.csv,ReadVersion.csv,Read,Read1,CEILING,CARPET,Study1,M,15,47,Test,User,-,,Recall,Recall1,2126,high,0,1687,1957,0,0,,1
5d4225e01985380018375d83,qj7g8i54sn,"Mediated Recall_Prolific",1,92,2023-02-05T23:20:57+00:00,1.8393521308899,1,versionA_stim.csv,ReadVersion.csv,Read,Read1,LION,STRIPES,Study1,M,6,45,Test,User,-,,Recall,Recall1,1540,king,18.181818181818,1189,1464,0,0,,1
5d4225e01985380018375d83,qj7g8i54sn,"Mediated Recall_Prolific",1,93,2023-02-05T23:20:59+00:00,1.8543109893799,1,versionA_stim.csv,ReadVersion.csv,Read,Read1,AFFECTION,LOVE,Study1,F,31,36,Test,User,-,,Recall,Recall1,1619,kiss,0,1264,1600,0,0,,1
5d4225e01985380018375d83,qj7g8i54sn,"Mediated Recall_Prolific",1,94,2023-02-05T23:21:00+00:00,1.7371468544006,1,versionA_stim.csv,ReadVersion.csv,Read,Read1,SIP,DRINK,Study1,F,32,38,Test,User,-,,Recall,Recall1,1488,water,20,1086,1421,0,0,,1
5d4225e01985380018375d83,qj7g8i54sn,"Mediated Recall_Prolific",1,95,2023-02-05T23:21:02+00:00,1.6502032279968,1,versionA_stim.csv,ReadVersion.csv,Read,Read1,TOOTH,HAIR,Study1,M,19,33,Test,User,-,,Recall,Recall1,1428,ache,25,1029,1295,0,0,,1
5d4225e01985380018375d83,qj7g8i54sn,"Mediated Recall_Prolific",1,96,2023-02-05T23:21:06+00:00,4.3256108760834,1,versionA_stim.csv,ReadVersion.csv,Read,Read1,CRACKLE,ELECTION,Study1,U,39,15,Test,User,-,,Recall,Recall1,4045,"cackle ",28.571428571429,2902,3676,0,0,,1
5d4225e01985380018375d83,qj7g8i54sn,"Mediated Recall_Prolific",1,97,2023-02-05T23:21:08+00:00,2.0898840427399,1,versionA_stim.csv,ReadVersion.csv,Read,Read1,VEHICLE,CHARM,Study1,U,40,19,Test,User,-,,Recall,Recall1,1839,car,75,1582,1759,0,1,,1
5d4225e01985380018375d83,qj7g8i54sn,"Mediated Recall_Prolific",1,98,2023-02-05T23:21:11+00:00,2.3535740375519,1,versionA_stim.csv,ReadVersion.csv,Read,Read1,FUZZY,BANG,Study1,U,50,32,Test,User,-,,Recall,Recall1,2100,warm,25,1649,1880,0,0,,1
5d4225e01985380018375d83,qj7g8i54sn,"Mediated Recall_Prolific",1,99,2023-02-05T23:21:13+00:00,2.7281458377838,1,versionA_stim.csv,ReadVersion.csv,Read,Read1,SOON,BELT,Study1,U,46,23,Test,User,-,,Recall,Recall1,2470,far,0,2199,2385,0,0,,1
5d4225e01985380018375d83,qj7g8i54sn,"Mediated Recall_Prolific",1,100,2023-02-05T23:21:16+00:00,2.9770681858063,1,versionA_stim.csv,ReadVersion.csv,Read,Read1,LITTER,TRASH,Study1,F,21,17,Test,User,-,,Recall,Recall1,2661,trash,100,1997,2444,1,1,,1
5d4225e01985380018375d83,qj7g8i54sn,"Mediated Recall_Prolific",1,101,2023-02-05T23:21:19+00:00,2.384290933609,1,versionA_stim.csv,ReadVersion.csv,Read,Read1,DAY,DARK,Study1,M,18,41,Test,User,-,,Recall,Recall1,2137,night,0,1698,2065,0,0,,1
5d4225e01985380018375d83,qj7g8i54sn,"Mediated Recall_Prolific",1,102,2023-02-05T23:21:20+00:00,1.6422328948975,1,versionA_stim.csv,ReadVersion.csv,Read,Read1,HARD,COTTON,Study1,M,20,34,Test,User,-,,Recall,Recall1,1398,soft,40,1023,1308,0,0,,1
5d4225e01985380018375d83,qj7g8i54sn,"Mediated Recall_Prolific",1,103,2023-02-05T23:21:24+00:00,3.6099941730499,1,versionA_stim.csv,ReadVersion.csv,Read,Read1,SCALP,HEAD,Study1,F,23,10,Test,User,-,,Recall,Recall1,3339,"itchy ",22.222222222222,2571,3171,0,0,,1
5d4225e01985380018375d83,qj7g8i54sn,"Mediated Recall_Prolific",1,104,2023-02-05T23:21:31+00:00,6.4506969451904,1,versionA_stim.csv,ReadVersion.csv,Read,Read1,SIGN,TICK,Study1,U,47,50,Test,User,-,,Recall,Recall1,6061,way,0,5768,5906,0,0,,1
5d4225e01985380018375d83,qj7g8i54sn,"Mediated Recall_Prolific",1,105,2023-02-05T23:21:53+00:00,22.993778944016,1,versionA_stim.csv,ReadVersion.csv,Read,Read1,BIRTHDAY,PIE,Study1,M,9,12,Test,User,-,,Recall,Recall1,22595,candle,22.222222222222,21540,22497,0,0,,0.476
5d4225e01985380018375d83,qj7g8i54sn,"Mediated Recall_Prolific",1,106,2023-02-05T23:22:24+00:00,30.976660966873,1,versionA_stim.csv,ReadVersion.csv,Read,Read1,,,,,,0,Instruct,-,10,"You will now be presented with a new set of word pairs. Please study each pair. Remember that your memory will be tested! When finished, press Enter to move to the next pair.",Initial_Instruct,Instruct4,30562,,,-1,-1,,,,0.68
5d4225e01985380018375d83,qj7g8i54sn,"Mediated Recall_Prolific",1,107,2023-02-05T23:22:26+00:00,1.5079650878906,1,versionA_stim.csv,ReadVersion.csv,Read,Read1,,,,,,0,Instruct,User,-,"Press Enter when you are readty to begin",,Instruct11,1275,,,-1,-1,,,,1
5d4225e01985380018375d83,qj7g8i54sn,"Mediated Recall_Prolific",1,108,2023-02-05T23:22:34+00:00,7.8088889122009,1,versionA_stim.csv,ReadVersion.csv,Read,Read1,SHRIMP,FISH,BUFFER4,Buffer,108,111,Study,User,-,,Study/JOL,BUFFER2,7425,,,-1,-1,,,,1
5d4225e01985380018375d83,qj7g8i54sn,"Mediated Recall_Prolific",1,109,2023-02-05T23:22:35+00:00,1.340362071991,1,versionA_stim.csv,ReadVersion.csv,Read,Read1,ICE,FROZEN,BUFFER4,Buffer,109,110,Study,User,-,,Study/JOL,BUFFER2,1083,,,-1,-1,,,,1
5d4225e01985380018375d83,qj7g8i54sn,"Mediated Recall_Prolific",1,110,2023-02-05T23:22:37+00:00,1.3713619709015,1,versionA_stim.csv,ReadVersion.csv,Read,Read1,GEESE,GOOSE,BUFFER2,Buffer,51,54,Study,User,-,,Study/JOL,BUFFER2,1095,,,-1,-1,,,,1
5d4225e01985380018375d83,qj7g8i54sn,"Mediated Recall_Prolific",1,111,2023-02-05T23:22:38+00:00,1.6753389835358,1,versionA_stim.csv,ReadVersion.csv,Read,Read1,MALT,CHOCOLATE,BUFFER2,Buffer,53,56,Study,User,-,,Study/JOL,BUFFER2,1411,,,-1,-1,,,,1
5d4225e01985380018375d83,qj7g8i54sn,"Mediated Recall_Prolific",1,112,2023-02-05T23:22:40+00:00,1.5574591159821,1,versionA_stim.csv,ReadVersion.csv,Read,Read1,CARROT,POTATO,BUFFER4,Buffer,106,109,Study,User,-,,Study/JOL,BUFFER2,1309,,,-1,-1,,,,1
5d4225e01985380018375d83,qj7g8i54sn,"Mediated Recall_Prolific",1,113,2023-02-05T23:22:41+00:00,1.4666218757629,1,versionA_stim.csv,ReadVersion.csv,Read,Read1,CHISEL,HAMMER,Study2,F,78,93,Study,User,-,,Study/JOL,"Study Phase2",1211,,,-1,-1,,,,1
5d4225e01985380018375d83,qj7g8i54sn,"Mediated Recall_Prolific",1,114,2023-02-05T23:22:43+00:00,1.4556930065155,1,versionA_stim.csv,ReadVersion.csv,Read,Read1,SUGAR,RIDDLE,Study2,U,95,103,Study,User,-,,Study/JOL,"Study Phase2",1205,,,-1,-1,,,,1
5d4225e01985380018375d83,qj7g8i54sn,"Mediated Recall_Prolific",1,115,2023-02-05T23:22:44+00:00,1.6756160259247,1,versionA_stim.csv,ReadVersion.csv,Read,Read1,RAZOR,MUSCLE,Study2,M,75,69,Study,User,-,,Study/JOL,"Study Phase2",1420,,,-1,-1,,,,1
5d4225e01985380018375d83,qj7g8i54sn,"Mediated Recall_Prolific",1,116,2023-02-05T23:22:46+00:00,1.926481962204,1,versionA_stim.csv,ReadVersion.csv,Read,Read1,GRILL,THIGH,Study2,M,72,73,Study,User,-,,Study/JOL,"Study Phase2",1669,,,-1,-1,,,,1
5d4225e01985380018375d83,qj7g8i54sn,"Mediated Recall_Prolific",1,117,2023-02-05T23:22:48+00:00,2.1648819446564,1,versionA_stim.csv,ReadVersion.csv,Read,Read1,SUMMER,SNOW,Study2,M,61,75,Study,User,-,,Study/JOL,"Study Phase2",1912,,,-1,-1,,,,1
5d4225e01985380018375d83,qj7g8i54sn,"Mediated Recall_Prolific",1,118,2023-02-05T23:22:50+00:00,1.4665620326996,1,versionA_stim.csv,ReadVersion.csv,Read,Read1,REALITY,ISLAND,Study2,M,64,74,Study,User,-,,Study/JOL,"Study Phase2",1224,,,-1,-1,,,,1
5d4225e01985380018375d83,qj7g8i54sn,"Mediated Recall_Prolific",1,119,2023-02-05T23:23:12+00:00,22.006078004837,1,versionA_stim.csv,ReadVersion.csv,Read,Read1,CHILL,COLD,Study2,F,87,86,Study,User,-,,Study/JOL,"Study Phase2",21599,,,-1,-1,,,,0.333
5d4225e01985380018375d83,qj7g8i54sn,"Mediated Recall_Prolific",1,120,2023-02-05T23:23:14+00:00,1.7655520439148,1,versionA_stim.csv,ReadVersion.csv,Read,Read1,HEAVY,FEATHER,Study2,M,68,85,Study,User,-,,Study/JOL,"Study Phase2",1511,,,-1,-1,,,,1
5d4225e01985380018375d83,qj7g8i54sn,"Mediated Recall_Prolific",1,121,2023-02-05T23:23:15+00:00,1.3465189933777,1,versionA_stim.csv,ReadVersion.csv,Read,Read1,CACTUS,PLANT,Study2,F,76,72,Study,User,-,,Study/JOL,"Study Phase2",1087,,,-1,-1,,,,1
5d4225e01985380018375d83,qj7g8i54sn,"Mediated Recall_Prolific",1,122,2023-02-05T23:23:17+00:00,1.9484570026398,1,versionA_stim.csv,ReadVersion.csv,Read,Read1,ARTERY,BRONZE,Study2,U,103,88,Study,User,-,,Study/JOL,"Study Phase2",1698,,,-1,-1,,,,1
5d4225e01985380018375d83,qj7g8i54sn,"Mediated Recall_Prolific",1,123,2023-02-05T23:23:18+00:00,1.3393149375916,1,versionA_stim.csv,ReadVersion.csv,Read,Read1,SICK,HIDE,Study2,U,100,91,Study,User,-,,Study/JOL,"Study Phase2",1102,,,-1,-1,,,,1
5d4225e01985380018375d83,qj7g8i54sn,"Mediated Recall_Prolific",1,124,2023-02-05T23:23:20+00:00,1.388808965683,1,versionA_stim.csv,ReadVersion.csv,Read,Read1,HORNET,STING,Study2,F,85,84,Study,User,-,,Study/JOL,"Study Phase2",1152,,,-1,-1,,,,1
5d4225e01985380018375d83,qj7g8i54sn,"Mediated Recall_Prolific",1,125,2023-02-05T23:23:21+00:00,1.459260225296,1,versionA_stim.csv,ReadVersion.csv,Read,Read1,ATTIRE,CLOTHES,Study2,F,79,62,Study,User,-,,Study/JOL,"Study Phase2",1194,,,-1,-1,,,,1
5d4225e01985380018375d83,qj7g8i54sn,"Mediated Recall_Prolific",1,126,2023-02-05T23:23:28+00:00,6.5382578372955,1,versionA_stim.csv,ReadVersion.csv,Read,Read1,WINDOW,KNOB,Study2,M,74,87,Study,User,-,,Study/JOL,"Study Phase2",6156,,,-1,-1,,,,1
5d4225e01985380018375d83,qj7g8i54sn,"Mediated Recall_Prolific",1,127,2023-02-05T23:23:29+00:00,1.1881070137024,1,versionA_stim.csv,ReadVersion.csv,Read,Read1,BRIDGE,WATER,Study2,F,90,65,Study,User,-,,Study/JOL,"Study Phase2",910,,,-1,-1,,,,1
5d4225e01985380018375d83,qj7g8i54sn,"Mediated Recall_Prolific",1,128,2023-02-05T23:23:31+00:00,1.9931070804596,1,versionA_stim.csv,ReadVersion.csv,Read,Read1,HERD,COW,Study2,F,88,83,Study,User,-,,Study/JOL,"Study Phase2",1722,,,-1,-1,,,,1
5d4225e01985380018375d83,qj7g8i54sn,"Mediated Recall_Prolific",1,129,2023-02-05T23:23:33+00:00,1.7881579399109,1,versionA_stim.csv,ReadVersion.csv,Read,Read1,EYES,SMELL,Study2,M,65,94,Study,User,-,,Study/JOL,"Study Phase2",1521,,,-1,-1,,,,1
5d4225e01985380018375d83,qj7g8i54sn,"Mediated Recall_Prolific",1,130,2023-02-05T23:23:37+00:00,3.9792149066925,1,versionA_stim.csv,ReadVersion.csv,Read,Read1,PUSH,CLUTTER,Study2,U,96,97,Study,User,-,,Study/JOL,"Study Phase2",3685,,,-1,-1,,,,1
5d4225e01985380018375d83,qj7g8i54sn,"Mediated Recall_Prolific",1,131,2023-02-05T23:23:38+00:00,1.1152091026306,1,versionA_stim.csv,ReadVersion.csv,Read,Read1,STRONG,ACCIDENT,Study2,U,94,104,Study,User,-,,Study/JOL,"Study Phase2",835,,,-1,-1,,,,1
5d4225e01985380018375d83,qj7g8i54sn,"Mediated Recall_Prolific",1,132,2023-02-05T23:23:40+00:00,1.7521250247955,1,versionA_stim.csv,ReadVersion.csv,Read,Read1,LEASE,TOIL,Study2,U,101,77,Study,User,-,,Study/JOL,"Study Phase2",1498,,,-1,-1,,,,1
5d4225e01985380018375d83,qj7g8i54sn,"Mediated Recall_Prolific",1,133,2023-02-05T23:23:41+00:00,1.392942905426,1,versionA_stim.csv,ReadVersion.csv,Read,Read1,MIRROR,CHILDREN,Study2,U,104,63,Study,User,-,,Study/JOL,"Study Phase2",1142,,,-1,-1,,,,1
5d4225e01985380018375d83,qj7g8i54sn,"Mediated Recall_Prolific",1,134,2023-02-05T23:23:42+00:00,1.0276510715485,1,versionA_stim.csv,ReadVersion.csv,Read,Read1,OVEN,BASKET,Study2,M,71,70,Study,User,-,,Study/JOL,"Study Phase2",759,,,-1,-1,,,,1
5d4225e01985380018375d83,qj7g8i54sn,"Mediated Recall_Prolific",1,135,2023-02-05T23:23:43+00:00,1.1520419120789,1,versionA_stim.csv,ReadVersion.csv,Read,Read1,LEAGUE,BASEBALL,Study2,F,84,64,Study,User,-,,Study/JOL,"Study Phase2",881,,,-1,-1,,,,1
5d4225e01985380018375d83,qj7g8i54sn,"Mediated Recall_Prolific",1,136,2023-02-05T23:23:44+00:00,1.0354499816895,1,versionA_stim.csv,ReadVersion.csv,Read,Read1,HAPPY,CAR,Study2,U,92,66,Study,User,-,,Study/JOL,"Study Phase2",779,,,-1,-1,,,,1
5d4225e01985380018375d83,qj7g8i54sn,"Mediated Recall_Prolific",1,137,2023-02-05T23:23:46+00:00,1.6343250274658,1,versionA_stim.csv,ReadVersion.csv,Read,Read1,DEATH,BUSINESS,Study2,U,99,80,Study,User,-,,Study/JOL,"Study Phase2",1252,,,-1,-1,,,,1
5d4225e01985380018375d83,qj7g8i54sn,"Mediated Recall_Prolific",1,138,2023-02-05T23:23:47+00:00,1.0825061798096,1,versionA_stim.csv,ReadVersion.csv,Read,Read1,SCHOOL,STOP,Study2,M,62,100,Study,User,-,,Study/JOL,"Study Phase2",820,,,-1,-1,,,,1
5d4225e01985380018375d83,qj7g8i54sn,"Mediated Recall_Prolific",1,139,2023-02-05T23:23:48+00:00,1.0388808250427,1,versionA_stim.csv,ReadVersion.csv,Read,Read1,TRAP,CAVE,Study2,M,70,81,Study,User,-,,Study/JOL,"Study Phase2",787,,,-1,-1,,,,1
5d4225e01985380018375d83,qj7g8i54sn,"Mediated Recall_Prolific",1,140,2023-02-05T23:23:53+00:00,4.9455449581146,1,versionA_stim.csv,ReadVersion.csv,Read,Read1,FEUD,FIGHT,Study2,F,86,67,Study,User,-,,Study/JOL,"Study Phase2",4686,,,-1,-1,,,,1
5d4225e01985380018375d83,qj7g8i54sn,"Mediated Recall_Prolific",1,141,2023-02-05T23:23:54+00:00,1.4343280792236,1,versionA_stim.csv,ReadVersion.csv,Read,Read1,RAKE,SEED,Study2,M,69,82,Study,User,-,,Study/JOL,"Study Phase2",1217,,,-1,-1,,,,1
5d4225e01985380018375d83,qj7g8i54sn,"Mediated Recall_Prolific",1,142,2023-02-05T23:23:56+00:00,1.5423450469971,1,versionA_stim.csv,ReadVersion.csv,Read,Read1,DIETARY,SACK,Study2,U,97,79,Study,User,-,,Study/JOL,"Study Phase2",1133,,,-1,-1,,,,1
5d4225e01985380018375d83,qj7g8i54sn,"Mediated Recall_Prolific",1,143,2023-02-05T23:23:57+00:00,1.3605179786682,1,versionA_stim.csv,ReadVersion.csv,Read,Read1,BOTH,OUNCE,Study2,U,102,95,Study,User,-,,Study/JOL,"Study Phase2",1099,,,-1,-1,,,,1
5d4225e01985380018375d83,qj7g8i54sn,"Mediated Recall_Prolific",1,144,2023-02-05T23:23:58+00:00,1.210410118103,1,versionA_stim.csv,ReadVersion.csv,Read,Read1,WASP,BUG,Study2,F,89,106,Study,User,-,,Study/JOL,"Study Phase2",938,,,-1,-1,,,,1
5d4225e01985380018375d83,qj7g8i54sn,"Mediated Recall_Prolific",1,145,2023-02-05T23:23:59+00:00,1.1342527866364,1,versionA_stim.csv,ReadVersion.csv,Read,Read1,BENCH,HORN,Study2,U,98,90,Study,User,-,,Study/JOL,"Study Phase2",873,,,-1,-1,,,,1
5d4225e01985380018375d83,qj7g8i54sn,"Mediated Recall_Prolific",1,146,2023-02-05T23:24:01+00:00,1.5467340946198,1,versionA_stim.csv,ReadVersion.csv,Read,Read1,PANTS,COLLAR,Study2,M,63,89,Study,User,-,,Study/JOL,"Study Phase2",1254,,,-1,-1,,,,1
5d4225e01985380018375d83,qj7g8i54sn,"Mediated Recall_Prolific",1,147,2023-02-05T23:24:02+00:00,0.94365906715393,1,versionA_stim.csv,ReadVersion.csv,Read,Read1,SOAP,DRINK,Study2,M,67,78,Study,User,-,,Study/JOL,"Study Phase2",687,,,-1,-1,,,,1
5d4225e01985380018375d83,qj7g8i54sn,"Mediated Recall_Prolific",1,148,2023-02-05T23:24:03+00:00,1.4590969085693,1,versionA_stim.csv,ReadVersion.csv,Read,Read1,BLAZE,FIRE,Study2,F,81,102,Study,User,-,,Study/JOL,"Study Phase2",1071,,,-1,-1,,,,1
5d4225e01985380018375d83,qj7g8i54sn,"Mediated Recall_Prolific",1,149,2023-02-05T23:24:05+00:00,1.1153190135956,1,versionA_stim.csv,ReadVersion.csv,Read,Read1,KING,VASE,Study2,U,91,105,Study,User,-,,Study/JOL,"Study Phase2",839,,,-1,-1,,,,1
5d4225e01985380018375d83,qj7g8i54sn,"Mediated Recall_Prolific",1,150,2023-02-05T23:24:06+00:00,1.2074620723724,1,versionA_stim.csv,ReadVersion.csv,Read,Read1,INCENSE,SMELL,Study2,F,83,76,Study,User,-,,Study/JOL,"Study Phase2",959,,,-1,-1,,,,1
5d4225e01985380018375d83,qj7g8i54sn,"Mediated Recall_Prolific",1,151,2023-02-05T23:24:07+00:00,1.4478209018707,1,versionA_stim.csv,ReadVersion.csv,Read,Read1,NURSE,LAWYER,Study2,M,66,92,Study,User,-,,Study/JOL,"Study Phase2",1191,,,-1,-1,,,,1
5d4225e01985380018375d83,qj7g8i54sn,"Mediated Recall_Prolific",1,152,2023-02-05T23:24:09+00:00,1.4333169460297,1,versionA_stim.csv,ReadVersion.csv,Read,Read1,CHERRY,RED,Study2,F,80,96,Study,User,-,,Study/JOL,"Study Phase2",1093,,,-1,-1,,,,1
5d4225e01985380018375d83,qj7g8i54sn,"Mediated Recall_Prolific",1,153,2023-02-05T23:24:10+00:00,0.92893409729004,1,versionA_stim.csv,ReadVersion.csv,Read,Read1,VALLEY,PEAK,Study2,M,73,71,Study,User,-,,Study/JOL,"Study Phase2",667,,,-1,-1,,,,1
5d4225e01985380018375d83,qj7g8i54sn,"Mediated Recall_Prolific",1,154,2023-02-05T23:24:11+00:00,1.2143669128418,1,versionA_stim.csv,ReadVersion.csv,Read,Read1,CASH,LEG,Study2,U,105,101,Study,User,-,,Study/JOL,"Study Phase2",961,,,-1,-1,,,,1
5d4225e01985380018375d83,qj7g8i54sn,"Mediated Recall_Prolific",1,155,2023-02-05T23:24:12+00:00,1.0721201896667,1,versionA_stim.csv,ReadVersion.csv,Read,Read1,CHOP,CUT,Study2,F,77,68,Study,User,-,,Study/JOL,"Study Phase2",809,,,-1,-1,,,,1
5d4225e01985380018375d83,qj7g8i54sn,"Mediated Recall_Prolific",1,156,2023-02-05T23:24:13+00:00,0.88453984260559,1,versionA_stim.csv,ReadVersion.csv,Read,Read1,ART,WOLF,Study2,U,93,99,Study,User,-,,Study/JOL,"Study Phase2",630,,,-1,-1,,,,1
5d4225e01985380018375d83,qj7g8i54sn,"Mediated Recall_Prolific",1,157,2023-02-05T23:24:14+00:00,1.4556431770325,1,versionA_stim.csv,ReadVersion.csv,Read,Read1,DOCUMENT,PAPER,Study2,F,82,98,Study,User,-,,Study/JOL,"Study Phase2",1204,,,-1,-1,,,,1
5d4225e01985380018375d83,qj7g8i54sn,"Mediated Recall_Prolific",1,158,2023-02-05T23:24:15+00:00,0.9724588394165,1,versionA_stim.csv,ReadVersion.csv,Read,Read1,SHERRIF,POLICE,BUFFER2,Buffer,52,55,Study,User,-,,Study/JOL,BUFFER2,723,,,-1,-1,,,,1
5d4225e01985380018375d83,qj7g8i54sn,"Mediated Recall_Prolific",1,159,2023-02-05T23:24:16+00:00,1.2579929828644,1,versionA_stim.csv,ReadVersion.csv,Read,Read1,MOON,SPACE,BUFFER2,Buffer,54,52,Study,User,-,,Study/JOL,BUFFER2,949,,,-1,-1,,,,1
5d4225e01985380018375d83,qj7g8i54sn,"Mediated Recall_Prolific",1,160,2023-02-05T23:24:17+00:00,1.0648789405823,1,versionA_stim.csv,ReadVersion.csv,Read,Read1,OCTOBER,SPOOKY,BUFFER3,Buffer,60,57,Study,User,-,,Study/JOL,BUFFER2,833,,,-1,-1,,,,1
5d4225e01985380018375d83,qj7g8i54sn,"Mediated Recall_Prolific",1,161,2023-02-05T23:24:18+00:00,0.97244310379028,1,versionA_stim.csv,ReadVersion.csv,Read,Read1,CAMP,ADVENTURE,BUFFER4,Buffer,110,107,Study,User,-,,Study/JOL,BUFFER2,717,,,-1,-1,,,,1
5d4225e01985380018375d83,qj7g8i54sn,"Mediated Recall_Prolific",1,162,2023-02-05T23:24:19+00:00,0.94088196754456,1,versionA_stim.csv,ReadVersion.csv,Read,Read1,DAYS,WEAKS,BUFFER3,Buffer,56,61,Study,User,-,,Study/JOL,BUFFER2,691,,,-1,-1,,,,1
5d4225e01985380018375d83,qj7g8i54sn,"Mediated Recall_Prolific",1,163,2023-02-05T23:24:21+00:00,1.4995501041412,1,versionA_stim.csv,ReadVersion.csv,Read,Read1,,,,,,0,Instruct,User,-,"You have completed this section. Please press Enter.",Filler_Instruction,Instruct2,1203,,,-1,-1,,,,1
5d4225e01985380018375d83,qj7g8i54sn,"Mediated Recall_Prolific",1,164,2023-02-05T23:26:21+00:00,120.55329990387,1,versionA_stim.csv,ReadVersion.csv,Read,Read1,,,,,,0,FreeRecall,120,120,"Please list the 50 US states in alphabetical order. The task will automatically advance to the next screen after two minutes.",,Filler1,120145,"Alabama, Alaska, Arizona, Arkansas, California, Colorado, Connecticut, Delaware, Florida, Georgia, Hawaii, Idaho, Illinois, Indiana, Iowa, Kansas, Kentucky, Louisiana, ",0,5084,96940,0,0,,0.872
5d4225e01985380018375d83,qj7g8i54sn,"Mediated Recall_Prolific",1,165,2023-02-05T23:28:12+00:00,111.00375914574,1,versionA_stim.csv,ReadVersion.csv,Read,Read1,,,,,,0,Instruct,-,10,"You will now be presented with the first word from each of the previously studied item pairs. Please type the missing word. If you do not know the word, you may guess or press Enter to skip forward to the next pair.",,Instruct3,110433,,,-1,-1,,,,0.225
5d4225e01985380018375d83,qj7g8i54sn,"Mediated Recall_Prolific",1,166,2023-02-05T23:28:15+00:00,2.0515148639679,1,versionA_stim.csv,ReadVersion.csv,Read,Read1,BLAZE,FIRE,Study2,F,81,102,Test,User,-,,Recall,Recall2,1796,fire,100,1412,1689,1,1,,1
5d4225e01985380018375d83,qj7g8i54sn,"Mediated Recall_Prolific",1,167,2023-02-05T23:28:18+00:00,3.1123199462891,1,versionA_stim.csv,ReadVersion.csv,Read,Read1,VALLEY,PEAK,Study2,M,73,71,Test,User,-,,Recall,Recall2,2763,grass,22.222222222222,2177,2656,0,0,,1
5d4225e01985380018375d83,qj7g8i54sn,"Mediated Recall_Prolific",1,168,2023-02-05T23:28:21+00:00,2.8966190814972,1,versionA_stim.csv,ReadVersion.csv,Read,Read1,RAZOR,MUSCLE,Study2,M,75,69,Test,User,-,,Recall,Recall2,2637,muscle,100,1924,2529,1,1,,1
5d4225e01985380018375d83,qj7g8i54sn,"Mediated Recall_Prolific",1,169,2023-02-05T23:28:23+00:00,2.6040279865265,1,versionA_stim.csv,ReadVersion.csv,Read,Read1,PANTS,COLLAR,Study2,M,63,89,Test,User,-,,Recall,Recall2,2354,clothes,30.769230769231,1285,2227,0,0,,1
5d4225e01985380018375d83,qj7g8i54sn,"Mediated Recall_Prolific",1,170,2023-02-05T23:28:27+00:00,3.8908689022064,1,versionA_stim.csv,ReadVersion.csv,Read,Read1,LEAGUE,BASEBALL,Study2,F,84,64,Test,User,-,,Recall,Recall2,3641,baseball,100,2743,3462,1,1,,1
5d4225e01985380018375d83,qj7g8i54sn,"Mediated Recall_Prolific",1,171,2023-02-05T23:28:33+00:00,5.6085200309753,1,versionA_stim.csv,ReadVersion.csv,Read,Read1,NURSE,LAWYER,Study2,M,66,92,Test,User,-,,Recall,Recall2,5148,lawyer,100,3995,4999,1,1,,1
5d4225e01985380018375d83,qj7g8i54sn,"Mediated Recall_Prolific",1,172,2023-02-05T23:28:35+00:00,2.2206060886383,1,versionA_stim.csv,ReadVersion.csv,Read,Read1,WINDOW,KNOB,Study2,M,74,87,Test,User,-,,Recall,Recall2,1970,tint,25,1624,1827,0,0,,1
5d4225e01985380018375d83,qj7g8i54sn,"Mediated Recall_Prolific",1,173,2023-02-05T23:28:37+00:00,1.7034540176392,1,versionA_stim.csv,ReadVersion.csv,Read,Read1,HERD,COW,Study2,F,88,83,Test,User,-,,Recall,Recall2,1450,cow,100,1071,1298,1,1,,1
5d4225e01985380018375d83,qj7g8i54sn,"Mediated Recall_Prolific",1,174,2023-02-05T23:28:39+00:00,2.5049700737,1,versionA_stim.csv,ReadVersion.csv,Read,Read1,CHERRY,RED,Study2,F,80,96,Test,User,-,,Recall,Recall2,2269,blossom,0,1031,1920,0,0,,1
5d4225e01985380018375d83,qj7g8i54sn,"Mediated Recall_Prolific",1,175,2023-02-05T23:28:42+00:00,2.8636708259583,1,versionA_stim.csv,ReadVersion.csv,Read,Read1,SCHOOL,STOP,Study2,M,62,100,Test,User,-,,Recall,Recall2,2615,kids,25,2137,2500,0,0,,1
5d4225e01985380018375d83,qj7g8i54sn,"Mediated Recall_Prolific",1,176,2023-02-05T23:28:45+00:00,2.8891470432281,1,versionA_stim.csv,ReadVersion.csv,Read,Read1,ART,WOLF,Study2,U,93,99,Test,User,-,,Recall,Recall2,2648,painting,0,1522,2505,0,0,,1
5d4225e01985380018375d83,qj7g8i54sn,"Mediated Recall_Prolific",1,177,2023-02-05T23:28:48+00:00,2.8461010456085,1,versionA_stim.csv,ReadVersion.csv,Read,Read1,KING,VASE,Study2,U,91,105,Test,User,-,,Recall,Recall2,2512,throne,20,1908,2363,0,0,,1
5d4225e01985380018375d83,qj7g8i54sn,"Mediated Recall_Prolific",1,178,2023-02-05T23:28:50+00:00,2.0293869972229,1,versionA_stim.csv,ReadVersion.csv,Read,Read1,DIETARY,SACK,Study2,U,97,79,Test,User,-,,Recall,Recall2,1771,food,0,1380,1644,0,0,,1
5d4225e01985380018375d83,qj7g8i54sn,"Mediated Recall_Prolific",1,179,2023-02-05T23:28:52+00:00,1.892226934433,1,versionA_stim.csv,ReadVersion.csv,Read,Read1,TRAP,CAVE,Study2,M,70,81,Test,User,-,,Recall,Recall2,1643,mouse,22.222222222222,1193,1542,0,0,,1
5d4225e01985380018375d83,qj7g8i54sn,"Mediated Recall_Prolific",1,180,2023-02-05T23:28:54+00:00,2.4122879505157,1,versionA_stim.csv,ReadVersion.csv,Read,Read1,HEAVY,FEATHER,Study2,M,68,85,Test,User,-,,Recall,Recall2,2130,cream,33.333333333333,1599,1942,0,0,,1
5d4225e01985380018375d83,qj7g8i54sn,"Mediated Recall_Prolific",1,181,2023-02-05T23:28:58+00:00,3.5987241268158,1,versionA_stim.csv,ReadVersion.csv,Read,Read1,SUGAR,RIDDLE,Study2,U,95,103,Test,User,-,,Recall,Recall2,3339,dessert,30.769230769231,2304,3077,0,0,,1
5d4225e01985380018375d83,qj7g8i54sn,"Mediated Recall_Prolific",1,182,2023-02-05T23:29:06+00:00,8.8031420707703,1,versionA_stim.csv,ReadVersion.csv,Read,Read1,SUMMER,SNOW,Study2,M,61,75,Test,User,-,,Recall,Recall2,8286,spring,40,7812,8221,0,0,,1
5d4225e01985380018375d83,qj7g8i54sn,"Mediated Recall_Prolific",1,183,2023-02-05T23:29:09+00:00,2.8087739944458,1,versionA_stim.csv,ReadVersion.csv,Read,Read1,LEASE,TOIL,Study2,U,101,77,Test,User,-,,Recall,Recall2,2495,house,22.222222222222,1338,2373,0,0,,1
5d4225e01985380018375d83,qj7g8i54sn,"Mediated Recall_Prolific",1,184,2023-02-05T23:29:12+00:00,3.1339700222015,1,versionA_stim.csv,ReadVersion.csv,Read,Read1,STRONG,ACCIDENT,Study2,U,94,104,Test,User,-,,Recall,Recall2,2866,weak,16.666666666667,2110,2453,0,0,,1
5d4225e01985380018375d83,qj7g8i54sn,"Mediated Recall_Prolific",1,185,2023-02-05T23:29:15+00:00,2.4219949245453,1,versionA_stim.csv,ReadVersion.csv,Read,Read1,WASP,BUG,Study2,F,89,106,Test,User,-,,Recall,Recall2,2153,stinger,20,1489,2087,0,0,,1
5d4225e01985380018375d83,qj7g8i54sn,"Mediated Recall_Prolific",1,186,2023-02-05T23:29:19+00:00,3.9197359085083,1,versionA_stim.csv,ReadVersion.csv,Read,Read1,CHISEL,HAMMER,Study2,F,78,93,Test,User,-,,Recall,Recall2,3678,hammer,100,3113,3621,1,1,,1
5d4225e01985380018375d83,qj7g8i54sn,"Mediated Recall_Prolific",1,187,2023-02-05T23:29:20+00:00,1.5321440696716,1,versionA_stim.csv,ReadVersion.csv,Read,Read1,HAPPY,CAR,Study2,U,92,66,Test,User,-,,Recall,Recall2,1277,sad,33.333333333333,982,1180,0,0,,1
5d4225e01985380018375d83,qj7g8i54sn,"Mediated Recall_Prolific",1,188,2023-02-05T23:29:24+00:00,4.0956590175629,1,versionA_stim.csv,ReadVersion.csv,Read,Read1,SICK,HIDE,Study2,U,100,91,Test,User,-,,Recall,Recall2,3843,doctor,20,2938,3694,0,0,,1
5d4225e01985380018375d83,qj7g8i54sn,"Mediated Recall_Prolific",1,189,2023-02-05T23:29:26+00:00,1.8213090896606,1,versionA_stim.csv,ReadVersion.csv,Read,Read1,CACTUS,PLANT,Study2,F,76,72,Test,User,-,,Recall,Recall2,1567,plant,100,1037,1446,1,1,,1
5d4225e01985380018375d83,qj7g8i54sn,"Mediated Recall_Prolific",1,190,2023-02-05T23:29:28+00:00,1.7638258934021,1,versionA_stim.csv,ReadVersion.csv,Read,Read1,OVEN,BASKET,Study2,M,71,70,Test,User,-,,Recall,Recall2,1521,hot,22.222222222222,1224,1378,0,0,,1
5d4225e01985380018375d83,qj7g8i54sn,"Mediated Recall_Prolific",1,191,2023-02-05T23:29:32+00:00,3.6412589550018,1,versionA_stim.csv,ReadVersion.csv,Read,Read1,GRILL,THIGH,Study2,M,72,73,Test,User,-,,Recall,Recall2,3333,chicken,33.333333333333,2639,3160,0,0,,1
5d4225e01985380018375d83,qj7g8i54sn,"Mediated Recall_Prolific",1,192,2023-02-05T23:29:36+00:00,4.9152181148529,1,versionA_stim.csv,ReadVersion.csv,Read,Read1,ARTERY,BRONZE,Study2,U,103,88,Test,User,-,,Recall,Recall2,4654,"vein ",20,2959,4015,0,0,,1
5d4225e01985380018375d83,qj7g8i54sn,"Mediated Recall_Prolific",1,193,2023-02-05T23:29:39+00:00,2.2469308376312,1,versionA_stim.csv,ReadVersion.csv,Read,Read1,CHOP,CUT,Study2,F,77,68,Test,User,-,,Recall,Recall2,1991,cut,100,1622,1887,1,1,,1
5d4225e01985380018375d83,qj7g8i54sn,"Mediated Recall_Prolific",1,194,2023-02-05T23:29:41+00:00,2.2074520587921,1,versionA_stim.csv,ReadVersion.csv,Read,Read1,DEATH,BUSINESS,Study2,U,99,80,Test,User,-,,Recall,Recall2,1874,life,33.333333333333,1425,1801,0,0,,1
5d4225e01985380018375d83,qj7g8i54sn,"Mediated Recall_Prolific",1,195,2023-02-05T23:29:44+00:00,2.6295430660248,1,versionA_stim.csv,ReadVersion.csv,Read,Read1,FEUD,FIGHT,Study2,F,86,67,Test,User,-,,Recall,Recall2,2380,family,36.363636363636,1187,2171,0,0,,1
5d4225e01985380018375d83,qj7g8i54sn,"Mediated Recall_Prolific",1,196,2023-02-05T23:29:46+00:00,2.5271739959717,1,versionA_stim.csv,ReadVersion.csv,Read,Read1,ATTIRE,CLOTHES,Study2,F,79,62,Test,User,-,,Recall,Recall2,2255,clothes,100,1569,2139,1,1,,1
5d4225e01985380018375d83,qj7g8i54sn,"Mediated Recall_Prolific",1,197,2023-02-05T23:29:48+00:00,2.1006050109863,1,versionA_stim.csv,ReadVersion.csv,Read,Read1,PUSH,CLUTTER,Study2,U,96,97,Test,User,-,,Recall,Recall2,1838,button,46.153846153846,1218,1651,0,0,,1
5d4225e01985380018375d83,qj7g8i54sn,"Mediated Recall_Prolific",1,198,2023-02-05T23:29:51+00:00,3.0889110565186,1,versionA_stim.csv,ReadVersion.csv,Read,Read1,INCENSE,SMELL,Study2,F,83,76,Test,User,-,,Recall,Recall2,2830,scents,36.363636363636,2105,2636,0,0,,1
5d4225e01985380018375d83,qj7g8i54sn,"Mediated Recall_Prolific",1,199,2023-02-05T23:29:59+00:00,7.5960109233856,1,versionA_stim.csv,ReadVersion.csv,Read,Read1,EYES,SMELL,Study2,M,65,94,Test,User,-,,Recall,Recall2,7183,look,22.222222222222,6501,6958,0,0,,1
5d4225e01985380018375d83,qj7g8i54sn,"Mediated Recall_Prolific",1,200,2023-02-05T23:30:01+00:00,1.7090780735016,1,versionA_stim.csv,ReadVersion.csv,Read,Read1,CASH,LEG,Study2,U,105,101,Test,User,-,,Recall,Recall2,1438,money,25,869,1256,0,0,,1
5d4225e01985380018375d83,qj7g8i54sn,"Mediated Recall_Prolific",1,201,2023-02-05T23:30:03+00:00,2.6919829845428,1,versionA_stim.csv,ReadVersion.csv,Read,Read1,SOAP,DRINK,Study2,M,67,78,Test,User,-,,Recall,Recall2,2369,smell,0,1849,2218,0,0,,1
5d4225e01985380018375d83,qj7g8i54sn,"Mediated Recall_Prolific",1,202,2023-02-05T23:30:06+00:00,2.7355577945709,1,versionA_stim.csv,ReadVersion.csv,Read,Read1,BENCH,HORN,Study2,U,98,90,Test,User,-,,Recall,Recall2,2492,sit,0,2180,2376,0,0,,1
5d4225e01985380018375d83,qj7g8i54sn,"Mediated Recall_Prolific",1,203,2023-02-05T23:30:09+00:00,2.7100172042847,1,versionA_stim.csv,ReadVersion.csv,Read,Read1,BRIDGE,WATER,Study2,F,90,65,Test,User,-,,Recall,Recall2,2448,water,100,1845,2217,1,1,,1
5d4225e01985380018375d83,qj7g8i54sn,"Mediated Recall_Prolific",1,204,2023-02-05T23:30:11+00:00,2.6701648235321,1,versionA_stim.csv,ReadVersion.csv,Read,Read1,MIRROR,CHILDREN,Study2,U,104,63,Test,User,-,,Recall,Recall2,2422,see,18.181818181818,2083,2328,0,0,,1
5d4225e01985380018375d83,qj7g8i54sn,"Mediated Recall_Prolific",1,205,2023-02-05T23:30:14+00:00,2.7761540412903,1,versionA_stim.csv,ReadVersion.csv,Read,Read1,HORNET,STING,Study2,F,85,84,Test,User,-,,Recall,Recall2,2518,bee,0,2144,2415,0,0,,1
5d4225e01985380018375d83,qj7g8i54sn,"Mediated Recall_Prolific",1,206,2023-02-05T23:30:16+00:00,1.8122589588165,1,versionA_stim.csv,ReadVersion.csv,Read,Read1,CHILL,COLD,Study2,F,87,86,Test,User,-,,Recall,Recall2,1548,cold,100,1127,1436,1,1,,1
5d4225e01985380018375d83,qj7g8i54sn,"Mediated Recall_Prolific",1,207,2023-02-05T23:30:19+00:00,3.3316261768341,1,versionA_stim.csv,ReadVersion.csv,Read,Read1,BOTH,OUNCE,Study2,U,102,95,Test,User,-,,Recall,Recall2,3051,none,44.444444444444,2653,2915,0,0,,1
5d4225e01985380018375d83,qj7g8i54sn,"Mediated Recall_Prolific",1,208,2023-02-05T23:30:21+00:00,1.7715818881989,1,versionA_stim.csv,ReadVersion.csv,Read,Read1,RAKE,SEED,Study2,M,69,82,Test,User,-,,Recall,Recall2,1496,leaves,40,1049,1412,0,0,,1
5d4225e01985380018375d83,qj7g8i54sn,"Mediated Recall_Prolific",1,209,2023-02-05T23:30:23+00:00,2.0113871097565,1,versionA_stim.csv,ReadVersion.csv,Read,Read1,DOCUMENT,PAPER,Study2,F,82,98,Test,User,-,,Recall,Recall2,1760,paper,100,1386,1675,1,1,,1
5d4225e01985380018375d83,qj7g8i54sn,"Mediated Recall_Prolific",1,210,2023-02-05T23:30:25+00:00,1.9580929279327,1,versionA_stim.csv,ReadVersion.csv,Read,Read1,REALITY,ISLAND,Study2,M,64,74,Test,User,-,,Recall,Recall2,1694,show,20,1341,1582,0,0,,1
5d4225e01985380018375d83,qj7g8i54sn,"Mediated Recall_Prolific",1,211,2023-02-05T23:30:48+00:00,23.302247047424,1,versionA_stim.csv,ReadVersion.csv,Read,Read1,,,,,,0,Instruct,User,-,"You have completed this section. Please press Enter.",,Instruct7,22930,,,-1,-1,,,,0.447
5d4225e01985380018375d83,qj7g8i54sn,"Mediated Recall_Prolific",1,212,2023-02-05T23:30:51+00:00,2.4896538257599,1,versionA_stim.csv,ReadVersion.csv,Read,Read1,,,,,,0,Instruct,User,-,"The following screen will ask you a few questions abour your experience today. You must complete these questions to receive credit.",,Instruct8,2268,,,-1,-1,,,,1
