Username,ID,ExperimentName,Session,Trial,Date,TimeDif,"Condition Number","Stimuli File","Order File","Condition Description","Condition Notes",Stimuli*Cue,Stimuli*Answer,Stimuli*Shuffle,"Stimuli*Stimuli Notes",Stimuli*Value,Procedure*Item,"Procedure*Trial Type","Procedure*Max Time","Procedure*Min Time",Procedure*Text,"Procedure*Procedure Notes",Procedure*Shuffle,Response*RT,Response*Response,Response*Accuracy,Response*RTfirst,Response*RTlast,Response*strictAcc,Response*lenientAcc,Response*focus,Response*Focus
63d16398d05b8126c30c19ea,a6jkz86ruu,"Mediated Recall_Prolific",1,1,2023-02-05T19:28:07+00:00,6.9123089313507,3,versionB_stim.csv,ReadVersion.csv,Read,Read2,,,,,,0,Instruct,-,5,"In this section, you will be presented with a series of word pairs. Please study each word pair! Your memory will be tested!",Initial_Instruct,Instruct1,6613,,,-1,-1,,,,1
63d16398d05b8126c30c19ea,a6jkz86ruu,"Mediated Recall_Prolific",1,2,2023-02-05T19:28:10+00:00,2.9612340927124,3,versionB_stim.csv,ReadVersion.csv,Read,Read2,,,,,,0,Instruct,User,-,"You will now begin. Press Enter when you are ready to begin.",,Instruct16,2734,,,-1,-1,,,,1
63d16398d05b8126c30c19ea,a6jkz86ruu,"Mediated Recall_Prolific",1,3,2023-02-05T19:28:12+00:00,1.8261258602142,3,versionB_stim.csv,ReadVersion.csv,Read,Read2,OCTOBER,SPOOKY,BUFFER3,Buffer,5,2,Study,User,-,,Study/JOL,BUFFER,1573,,,-1,-1,,,,1
63d16398d05b8126c30c19ea,a6jkz86ruu,"Mediated Recall_Prolific",1,4,2023-02-05T19:28:14+00:00,2.4163789749146,3,versionB_stim.csv,ReadVersion.csv,Read,Read2,SPRING,MARCH,BUFFER3,Buffer,4,5,Study,User,-,,Study/JOL,BUFFER,2168,,,-1,-1,,,,1
63d16398d05b8126c30c19ea,a6jkz86ruu,"Mediated Recall_Prolific",1,5,2023-02-05T19:28:17+00:00,2.7700440883636,3,versionB_stim.csv,ReadVersion.csv,Read,Read2,TOOL,SHED,BUFFER3,Buffer,3,4,Study,User,-,,Study/JOL,BUFFER,2540,,,-1,-1,,,,1
63d16398d05b8126c30c19ea,a6jkz86ruu,"Mediated Recall_Prolific",1,6,2023-02-05T19:28:19+00:00,2.2683980464935,3,versionB_stim.csv,ReadVersion.csv,Read,Read2,MONTH,YEAR,BUFFER3,Buffer,2,3,Study,User,-,,Study/JOL,BUFFER,2037,,,-1,-1,,,,1
63d16398d05b8126c30c19ea,a6jkz86ruu,"Mediated Recall_Prolific",1,7,2023-02-05T19:28:21+00:00,2.0793919563293,3,versionB_stim.csv,ReadVersion.csv,Read,Read2,DAYS,WEAKS,BUFFER3,Buffer,1,6,Study,User,-,,Study/JOL,BUFFER,1853,,,-1,-1,,,,1
63d16398d05b8126c30c19ea,a6jkz86ruu,"Mediated Recall_Prolific",1,8,2023-02-05T19:28:24+00:00,2.2582809925079,3,versionB_stim.csv,ReadVersion.csv,Read,Read2,PANTS,COLLAR,Study2,M,8,10,Study,User,-,,Study/JOL,"Study Phase",2034,,,-1,-1,,,,1
63d16398d05b8126c30c19ea,a6jkz86ruu,"Mediated Recall_Prolific",1,9,2023-02-05T19:28:25+00:00,1.8437569141388,3,versionB_stim.csv,ReadVersion.csv,Read,Read2,HORNET,STING,Study2,F,30,18,Study,User,-,,Study/JOL,"Study Phase",1602,,,-1,-1,,,,1
63d16398d05b8126c30c19ea,a6jkz86ruu,"Mediated Recall_Prolific",1,10,2023-02-05T19:28:27+00:00,1.8031070232391,3,versionB_stim.csv,ReadVersion.csv,Read,Read2,SOAP,DRINK,Study2,M,12,38,Study,User,-,,Study/JOL,"Study Phase",1589,,,-1,-1,,,,1
63d16398d05b8126c30c19ea,a6jkz86ruu,"Mediated Recall_Prolific",1,11,2023-02-05T19:28:29+00:00,2.1777091026306,3,versionB_stim.csv,ReadVersion.csv,Read,Read2,WASP,BUG,Study2,F,34,14,Study,User,-,,Study/JOL,"Study Phase",1937,,,-1,-1,,,,1
63d16398d05b8126c30c19ea,a6jkz86ruu,"Mediated Recall_Prolific",1,12,2023-02-05T19:28:31+00:00,1.9921588897705,3,versionB_stim.csv,ReadVersion.csv,Read,Read2,SICK,HIDE,Study2,U,45,42,Study,User,-,,Study/JOL,"Study Phase",1777,,,-1,-1,,,,1
63d16398d05b8126c30c19ea,a6jkz86ruu,"Mediated Recall_Prolific",1,13,2023-02-05T19:28:33+00:00,1.8967909812927,3,versionB_stim.csv,ReadVersion.csv,Read,Read2,CACTUS,PLANT,Study2,F,21,16,Study,User,-,,Study/JOL,"Study Phase",1676,,,-1,-1,,,,1
63d16398d05b8126c30c19ea,a6jkz86ruu,"Mediated Recall_Prolific",1,14,2023-02-05T19:28:36+00:00,2.2106821537018,3,versionB_stim.csv,ReadVersion.csv,Read,Read2,CHISEL,HAMMER,Study2,F,23,43,Study,User,-,,Study/JOL,"Study Phase",1997,,,-1,-1,,,,1
63d16398d05b8126c30c19ea,a6jkz86ruu,"Mediated Recall_Prolific",1,15,2023-02-05T19:28:38+00:00,1.9970860481262,3,versionB_stim.csv,ReadVersion.csv,Read,Read2,BLAZE,FIRE,Study2,F,26,46,Study,User,-,,Study/JOL,"Study Phase",1797,,,-1,-1,,,,1
63d16398d05b8126c30c19ea,a6jkz86ruu,"Mediated Recall_Prolific",1,16,2023-02-05T19:28:39+00:00,1.7849969863892,3,versionB_stim.csv,ReadVersion.csv,Read,Read2,HEAVY,FEATHER,Study2,M,13,19,Study,User,-,,Study/JOL,"Study Phase",1549,,,-1,-1,,,,1
63d16398d05b8126c30c19ea,a6jkz86ruu,"Mediated Recall_Prolific",1,17,2023-02-05T19:28:41+00:00,1.6891260147095,3,versionB_stim.csv,ReadVersion.csv,Read,Read2,FEUD,FIGHT,Study2,F,31,25,Study,User,-,,Study/JOL,"Study Phase",1464,,,-1,-1,,,,1
63d16398d05b8126c30c19ea,a6jkz86ruu,"Mediated Recall_Prolific",1,18,2023-02-05T19:28:43+00:00,1.5678207874298,3,versionB_stim.csv,ReadVersion.csv,Read,Read2,SUMMER,SNOW,Study2,M,6,20,Study,User,-,,Study/JOL,"Study Phase",1350,,,-1,-1,,,,1
63d16398d05b8126c30c19ea,a6jkz86ruu,"Mediated Recall_Prolific",1,19,2023-02-05T19:28:44+00:00,1.76051902771,3,versionB_stim.csv,ReadVersion.csv,Read,Read2,REALITY,ISLAND,Study2,M,9,41,Study,User,-,,Study/JOL,"Study Phase",1538,,,-1,-1,,,,1
63d16398d05b8126c30c19ea,a6jkz86ruu,"Mediated Recall_Prolific",1,20,2023-02-05T19:28:47+00:00,2.6194341182709,3,versionB_stim.csv,ReadVersion.csv,Read,Read2,NURSE,LAWYER,Study2,M,11,11,Study,User,-,,Study/JOL,"Study Phase",2382,,,-1,-1,,,,1
63d16398d05b8126c30c19ea,a6jkz86ruu,"Mediated Recall_Prolific",1,21,2023-02-05T19:28:49+00:00,1.9465210437775,3,versionB_stim.csv,ReadVersion.csv,Read,Read2,WINDOW,KNOB,Study2,M,19,17,Study,User,-,,Study/JOL,"Study Phase",1733,,,-1,-1,,,,1
63d16398d05b8126c30c19ea,a6jkz86ruu,"Mediated Recall_Prolific",1,22,2023-02-05T19:28:51+00:00,1.6221408843994,3,versionB_stim.csv,ReadVersion.csv,Read,Read2,CHERRY,RED,Study2,F,25,39,Study,User,-,,Study/JOL,"Study Phase",1401,,,-1,-1,,,,1
63d16398d05b8126c30c19ea,a6jkz86ruu,"Mediated Recall_Prolific",1,23,2023-02-05T19:28:52+00:00,1.5944859981537,3,versionB_stim.csv,ReadVersion.csv,Read,Read2,KING,VASE,Study2,U,36,35,Study,User,-,,Study/JOL,"Study Phase",1365,,,-1,-1,,,,1
63d16398d05b8126c30c19ea,a6jkz86ruu,"Mediated Recall_Prolific",1,24,2023-02-05T19:28:54+00:00,1.5662281513214,3,versionB_stim.csv,ReadVersion.csv,Read,Read2,PUSH,CLUTTER,Study2,U,41,15,Study,User,-,,Study/JOL,"Study Phase",1354,,,-1,-1,,,,1
63d16398d05b8126c30c19ea,a6jkz86ruu,"Mediated Recall_Prolific",1,25,2023-02-05T19:28:56+00:00,2.0423078536987,3,versionB_stim.csv,ReadVersion.csv,Read,Read2,SCHOOL,STOP,Study2,M,7,13,Study,User,-,,Study/JOL,"Study Phase",1785,,,-1,-1,,,,1
63d16398d05b8126c30c19ea,a6jkz86ruu,"Mediated Recall_Prolific",1,26,2023-02-05T19:28:57+00:00,1.6467311382294,3,versionB_stim.csv,ReadVersion.csv,Read,Read2,RAKE,SEED,Study2,M,14,45,Study,User,-,,Study/JOL,"Study Phase",1423,,,-1,-1,,,,1
63d16398d05b8126c30c19ea,a6jkz86ruu,"Mediated Recall_Prolific",1,27,2023-02-05T19:28:59+00:00,1.7569658756256,3,versionB_stim.csv,ReadVersion.csv,Read,Read2,GRILL,THIGH,Study2,M,17,23,Study,User,-,,Study/JOL,"Study Phase",1526,,,-1,-1,,,,1
63d16398d05b8126c30c19ea,a6jkz86ruu,"Mediated Recall_Prolific",1,28,2023-02-05T19:29:01+00:00,1.7409439086914,3,versionB_stim.csv,ReadVersion.csv,Read,Read2,ART,WOLF,Study2,U,38,24,Study,User,-,,Study/JOL,"Study Phase",1508,,,-1,-1,,,,1
63d16398d05b8126c30c19ea,a6jkz86ruu,"Mediated Recall_Prolific",1,29,2023-02-05T19:29:02+00:00,1.6100690364838,3,versionB_stim.csv,ReadVersion.csv,Read,Read2,MIRROR,CHILDREN,Study2,U,49,51,Study,User,-,,Study/JOL,"Study Phase",1373,,,-1,-1,,,,1
63d16398d05b8126c30c19ea,a6jkz86ruu,"Mediated Recall_Prolific",1,30,2023-02-05T19:29:04+00:00,1.9317240715027,3,versionB_stim.csv,ReadVersion.csv,Read,Read2,BENCH,HORN,Study2,U,43,47,Study,User,-,,Study/JOL,"Study Phase",1686,,,-1,-1,,,,1
63d16398d05b8126c30c19ea,a6jkz86ruu,"Mediated Recall_Prolific",1,31,2023-02-05T19:29:06+00:00,1.6923530101776,3,versionB_stim.csv,ReadVersion.csv,Read,Read2,VALLEY,PEAK,Study2,M,18,27,Study,User,-,,Study/JOL,"Study Phase",1424,,,-1,-1,,,,1
63d16398d05b8126c30c19ea,a6jkz86ruu,"Mediated Recall_Prolific",1,32,2023-02-05T19:29:08+00:00,1.7168920040131,3,versionB_stim.csv,ReadVersion.csv,Read,Read2,RAZOR,MUSCLE,Study2,M,20,31,Study,User,-,,Study/JOL,"Study Phase",1494,,,-1,-1,,,,1
63d16398d05b8126c30c19ea,a6jkz86ruu,"Mediated Recall_Prolific",1,33,2023-02-05T19:29:09+00:00,1.5174460411072,3,versionB_stim.csv,ReadVersion.csv,Read,Read2,CHOP,CUT,Study2,F,22,44,Study,User,-,,Study/JOL,"Study Phase",1302,,,-1,-1,,,,1
63d16398d05b8126c30c19ea,a6jkz86ruu,"Mediated Recall_Prolific",1,34,2023-02-05T19:29:11+00:00,1.5682020187378,3,versionB_stim.csv,ReadVersion.csv,Read,Read2,HERD,COW,Study2,F,33,36,Study,User,-,,Study/JOL,"Study Phase",1350,,,-1,-1,,,,1
63d16398d05b8126c30c19ea,a6jkz86ruu,"Mediated Recall_Prolific",1,35,2023-02-05T19:29:12+00:00,1.5811350345612,3,versionB_stim.csv,ReadVersion.csv,Read,Read2,BOTH,OUNCE,Study2,U,47,9,Study,User,-,,Study/JOL,"Study Phase",1361,,,-1,-1,,,,1
63d16398d05b8126c30c19ea,a6jkz86ruu,"Mediated Recall_Prolific",1,36,2023-02-05T19:29:14+00:00,1.444347858429,3,versionB_stim.csv,ReadVersion.csv,Read,Read2,BRIDGE,WATER,Study2,F,35,34,Study,User,-,,Study/JOL,"Study Phase",1222,,,-1,-1,,,,1
63d16398d05b8126c30c19ea,a6jkz86ruu,"Mediated Recall_Prolific",1,37,2023-02-05T19:29:16+00:00,1.8116619586945,3,versionB_stim.csv,ReadVersion.csv,Read,Read2,LEASE,TOIL,Study2,U,46,30,Study,User,-,,Study/JOL,"Study Phase",1588,,,-1,-1,,,,1
63d16398d05b8126c30c19ea,a6jkz86ruu,"Mediated Recall_Prolific",1,38,2023-02-05T19:29:17+00:00,1.6335251331329,3,versionB_stim.csv,ReadVersion.csv,Read,Read2,STRONG,ACCIDENT,Study2,U,39,22,Study,User,-,,Study/JOL,"Study Phase",1181,,,-1,-1,,,,1
63d16398d05b8126c30c19ea,a6jkz86ruu,"Mediated Recall_Prolific",1,39,2023-02-05T19:29:19+00:00,1.2570428848267,3,versionB_stim.csv,ReadVersion.csv,Read,Read2,EYES,SMELL,Study2,M,10,32,Study,User,-,,Study/JOL,"Study Phase",1037,,,-1,-1,,,,1
63d16398d05b8126c30c19ea,a6jkz86ruu,"Mediated Recall_Prolific",1,40,2023-02-05T19:29:20+00:00,1.6504011154175,3,versionB_stim.csv,ReadVersion.csv,Read,Read2,DIETARY,SACK,Study2,U,42,33,Study,User,-,,Study/JOL,"Study Phase",1443,,,-1,-1,,,,1
63d16398d05b8126c30c19ea,a6jkz86ruu,"Mediated Recall_Prolific",1,41,2023-02-05T19:29:22+00:00,1.5332839488983,3,versionB_stim.csv,ReadVersion.csv,Read,Read2,LEAGUE,BASEBALL,Study2,F,29,40,Study,User,-,,Study/JOL,"Study Phase",1334,,,-1,-1,,,,1
63d16398d05b8126c30c19ea,a6jkz86ruu,"Mediated Recall_Prolific",1,42,2023-02-05T19:29:23+00:00,1.288880109787,3,versionB_stim.csv,ReadVersion.csv,Read,Read2,DEATH,BUSINESS,Study2,U,44,7,Study,User,-,,Study/JOL,"Study Phase",996,,,-1,-1,,,,1
63d16398d05b8126c30c19ea,a6jkz86ruu,"Mediated Recall_Prolific",1,43,2023-02-05T19:29:25+00:00,1.4319748878479,3,versionB_stim.csv,ReadVersion.csv,Read,Read2,ARTERY,BRONZE,Study2,U,48,37,Study,User,-,,Study/JOL,"Study Phase",1190,,,-1,-1,,,,1
63d16398d05b8126c30c19ea,a6jkz86ruu,"Mediated Recall_Prolific",1,44,2023-02-05T19:29:26+00:00,1.2258269786835,3,versionB_stim.csv,ReadVersion.csv,Read,Read2,OVEN,BASKET,Study2,M,16,26,Study,User,-,,Study/JOL,"Study Phase",1010,,,-1,-1,,,,1
63d16398d05b8126c30c19ea,a6jkz86ruu,"Mediated Recall_Prolific",1,45,2023-02-05T19:29:27+00:00,1.4420969486237,3,versionB_stim.csv,ReadVersion.csv,Read,Read2,INCENSE,SMELL,Study2,F,28,48,Study,User,-,,Study/JOL,"Study Phase",1186,,,-1,-1,,,,1
63d16398d05b8126c30c19ea,a6jkz86ruu,"Mediated Recall_Prolific",1,46,2023-02-05T19:29:29+00:00,1.8838901519775,3,versionB_stim.csv,ReadVersion.csv,Read,Read2,TRAP,CAVE,Study2,M,15,21,Study,User,-,,Study/JOL,"Study Phase",1667,,,-1,-1,,,,1
63d16398d05b8126c30c19ea,a6jkz86ruu,"Mediated Recall_Prolific",1,47,2023-02-05T19:29:30+00:00,1.3940320014954,3,versionB_stim.csv,ReadVersion.csv,Read,Read2,ATTIRE,CLOTHES,Study2,F,24,8,Study,User,-,,Study/JOL,"Study Phase",1176,,,-1,-1,,,,1
63d16398d05b8126c30c19ea,a6jkz86ruu,"Mediated Recall_Prolific",1,48,2023-02-05T19:29:32+00:00,1.2641739845276,3,versionB_stim.csv,ReadVersion.csv,Read,Read2,HAPPY,CAR,Study2,U,37,28,Study,User,-,,Study/JOL,"Study Phase",1063,,,-1,-1,,,,1
63d16398d05b8126c30c19ea,a6jkz86ruu,"Mediated Recall_Prolific",1,49,2023-02-05T19:29:33+00:00,1.3038229942322,3,versionB_stim.csv,ReadVersion.csv,Read,Read2,CHILL,COLD,Study2,F,32,29,Study,User,-,,Study/JOL,"Study Phase",1092,,,-1,-1,,,,1
63d16398d05b8126c30c19ea,a6jkz86ruu,"Mediated Recall_Prolific",1,50,2023-02-05T19:29:34+00:00,1.3788299560547,3,versionB_stim.csv,ReadVersion.csv,Read,Read2,SUGAR,RIDDLE,Study2,U,40,12,Study,User,-,,Study/JOL,"Study Phase",1164,,,-1,-1,,,,1
63d16398d05b8126c30c19ea,a6jkz86ruu,"Mediated Recall_Prolific",1,51,2023-02-05T19:29:36+00:00,1.4911949634552,3,versionB_stim.csv,ReadVersion.csv,Read,Read2,DOCUMENT,PAPER,Study2,F,27,49,Study,User,-,,Study/JOL,"Study Phase",1267,,,-1,-1,,,,1
63d16398d05b8126c30c19ea,a6jkz86ruu,"Mediated Recall_Prolific",1,52,2023-02-05T19:29:37+00:00,1.4366500377655,3,versionB_stim.csv,ReadVersion.csv,Read,Read2,CASH,LEG,Study2,U,50,50,Study,User,-,,Study/JOL,"Study Phase",1095,,,-1,-1,,,,1
63d16398d05b8126c30c19ea,a6jkz86ruu,"Mediated Recall_Prolific",1,53,2023-02-05T19:29:39+00:00,1.6791949272156,3,versionB_stim.csv,ReadVersion.csv,Read,Read2,MALT,CHOCOLATE,BUFFER2,Buffer,108,111,Study,User,-,,Study/JOL,BUFFER2,1472,,,-1,-1,,,,1
63d16398d05b8126c30c19ea,a6jkz86ruu,"Mediated Recall_Prolific",1,54,2023-02-05T19:29:41+00:00,1.5369281768799,3,versionB_stim.csv,ReadVersion.csv,Read,Read2,ICE,FROZEN,BUFFER4,Buffer,54,55,Study,User,-,,Study/JOL,BUFFER2,1321,,,-1,-1,,,,1
63d16398d05b8126c30c19ea,a6jkz86ruu,"Mediated Recall_Prolific",1,55,2023-02-05T19:29:42+00:00,1.469165802002,3,versionB_stim.csv,ReadVersion.csv,Read,Read2,SHRIMP,FISH,BUFFER4,Buffer,53,53,Study,User,-,,Study/JOL,BUFFER2,1253,,,-1,-1,,,,1
63d16398d05b8126c30c19ea,a6jkz86ruu,"Mediated Recall_Prolific",1,56,2023-02-05T19:29:44+00:00,1.5808520317078,3,versionB_stim.csv,ReadVersion.csv,Read,Read2,SHERRIF,POLICE,BUFFER2,Buffer,107,107,Study,User,-,,Study/JOL,BUFFER2,1358,,,-1,-1,,,,1
63d16398d05b8126c30c19ea,a6jkz86ruu,"Mediated Recall_Prolific",1,57,2023-02-05T19:29:45+00:00,1.2995879650116,3,versionB_stim.csv,ReadVersion.csv,Read,Read2,THING,STUFF,BUFFER2,Buffer,110,109,Study,User,-,,Study/JOL,BUFFER2,1085,,,-1,-1,,,,1
63d16398d05b8126c30c19ea,a6jkz86ruu,"Mediated Recall_Prolific",1,58,2023-02-05T19:29:46+00:00,1.0588791370392,3,versionB_stim.csv,ReadVersion.csv,Read,Read2,,,,,,0,Instruct,User,-,"You have completed this section. Please press Enter.",Filler_Instruction,Instruct2,845,,,-1,-1,,,,1
63d16398d05b8126c30c19ea,a6jkz86ruu,"Mediated Recall_Prolific",1,59,2023-02-05T19:31:46+00:00,120.36792683601,3,versionB_stim.csv,ReadVersion.csv,Read,Read2,,,,,,0,FreeRecall,120,120,"Please list the 50 US states in alphabetical order. The task will automatically advance to the next screen after two minutes.",,Filler1,120004,"Alabama Alaska Arizona Arkansas California Colorado Connecticut Delaware Georgia Hawaii Idaho Illinois Indiana Iowa Kansas Kentucky Louisiana Maine Maryland Massachusettes Michigan Nebraska Nevada New Hampshire North Carolina North Dakota Ohio Pennsylvania South Carolina South Dakota ",0,5289,108678,0,0,,1
63d16398d05b8126c30c19ea,a6jkz86ruu,"Mediated Recall_Prolific",1,60,2023-02-05T19:31:57+00:00,11.006483078003,3,versionB_stim.csv,ReadVersion.csv,Read,Read2,,,,,,0,Instruct,-,10,"You will now be presented with the first word from each of the previously studied item pairs. Please type the missing word. If you do not know the word, you may guess or press Enter to skip forward to the next pair.",,Instruct3,10601,,,-1,-1,,,,1
63d16398d05b8126c30c19ea,a6jkz86ruu,"Mediated Recall_Prolific",1,61,2023-02-05T19:32:00+00:00,2.5855190753937,3,versionB_stim.csv,ReadVersion.csv,Read,Read2,DOCUMENT,PAPER,Study2,F,27,49,Test,User,-,,Recall,Recall1,2345,paper,100,1502,1867,1,1,,1
63d16398d05b8126c30c19ea,a6jkz86ruu,"Mediated Recall_Prolific",1,62,2023-02-05T19:32:02+00:00,1.7402439117432,3,versionB_stim.csv,ReadVersion.csv,Read,Read2,HORNET,STING,Study2,F,30,18,Test,User,-,,Recall,Recall1,1505,sting,100,925,1278,1,1,,1
63d16398d05b8126c30c19ea,a6jkz86ruu,"Mediated Recall_Prolific",1,63,2023-02-05T19:32:04+00:00,2.7546920776367,3,versionB_stim.csv,ReadVersion.csv,Read,Read2,DIETARY,SACK,Study2,U,42,33,Test,User,-,,Recall,Recall1,2501,bag,28.571428571429,1556,1671,0,0,,1
63d16398d05b8126c30c19ea,a6jkz86ruu,"Mediated Recall_Prolific",1,64,2023-02-05T19:32:07+00:00,2.3251068592072,3,versionB_stim.csv,ReadVersion.csv,Read,Read2,GRILL,THIGH,Study2,M,17,23,Test,User,-,,Recall,Recall1,2105,thigh,100,1096,1842,1,1,,1
63d16398d05b8126c30c19ea,a6jkz86ruu,"Mediated Recall_Prolific",1,65,2023-02-05T19:32:09+00:00,2.3931770324707,3,versionB_stim.csv,ReadVersion.csv,Read,Read2,BENCH,HORN,Study2,U,43,47,Test,User,-,,Recall,Recall1,2180,,0,-1,-1,0,0,,1
63d16398d05b8126c30c19ea,a6jkz86ruu,"Mediated Recall_Prolific",1,66,2023-02-05T19:32:11+00:00,1.932058095932,3,versionB_stim.csv,ReadVersion.csv,Read,Read2,MIRROR,CHILDREN,Study2,U,49,51,Test,User,-,,Recall,Recall1,1699,children,100,1035,1555,1,1,,1
63d16398d05b8126c30c19ea,a6jkz86ruu,"Mediated Recall_Prolific",1,67,2023-02-05T19:32:13+00:00,1.6678760051727,3,versionB_stim.csv,ReadVersion.csv,Read,Read2,PUSH,CLUTTER,Study2,U,41,15,Test,User,-,,Recall,Recall1,1424,,0,-1,-1,0,0,,1
63d16398d05b8126c30c19ea,a6jkz86ruu,"Mediated Recall_Prolific",1,68,2023-02-05T19:32:15+00:00,2.6458239555359,3,versionB_stim.csv,ReadVersion.csv,Read,Read2,PANTS,COLLAR,Study2,M,8,10,Test,User,-,,Recall,Recall1,2411,collar,100,1291,2145,1,1,,1
63d16398d05b8126c30c19ea,a6jkz86ruu,"Mediated Recall_Prolific",1,69,2023-02-05T19:32:18+00:00,2.2915229797363,3,versionB_stim.csv,ReadVersion.csv,Read,Read2,HEAVY,FEATHER,Study2,M,13,19,Test,User,-,,Recall,Recall1,2049,feather,100,1452,1910,1,1,,1
63d16398d05b8126c30c19ea,a6jkz86ruu,"Mediated Recall_Prolific",1,70,2023-02-05T19:32:19+00:00,1.709450006485,3,versionB_stim.csv,ReadVersion.csv,Read,Read2,CACTUS,PLANT,Study2,F,21,16,Test,User,-,,Recall,Recall1,1482,plant,100,942,1311,1,1,,1
63d16398d05b8126c30c19ea,a6jkz86ruu,"Mediated Recall_Prolific",1,71,2023-02-05T19:32:22+00:00,2.3274481296539,3,versionB_stim.csv,ReadVersion.csv,Read,Read2,SCHOOL,STOP,Study2,M,7,13,Test,User,-,,Recall,Recall1,2083,,0,-1,-1,0,0,,1
63d16398d05b8126c30c19ea,a6jkz86ruu,"Mediated Recall_Prolific",1,72,2023-02-05T19:32:24+00:00,2.2455108165741,3,versionB_stim.csv,ReadVersion.csv,Read,Read2,CHILL,COLD,Study2,F,32,29,Test,User,-,,Recall,Recall1,1878,cold,100,1438,1697,1,1,,1
63d16398d05b8126c30c19ea,a6jkz86ruu,"Mediated Recall_Prolific",1,73,2023-02-05T19:32:27+00:00,2.5687291622162,3,versionB_stim.csv,ReadVersion.csv,Read,Read2,HAPPY,CAR,Study2,U,37,28,Test,User,-,,Recall,Recall1,2308,,0,-1,-1,0,0,,1
63d16398d05b8126c30c19ea,a6jkz86ruu,"Mediated Recall_Prolific",1,74,2023-02-05T19:32:29+00:00,1.9597368240356,3,versionB_stim.csv,ReadVersion.csv,Read,Read2,HERD,COW,Study2,F,33,36,Test,User,-,,Recall,Recall1,1721,cattle,22.222222222222,1037,1590,0,0,,1
63d16398d05b8126c30c19ea,a6jkz86ruu,"Mediated Recall_Prolific",1,75,2023-02-05T19:32:31+00:00,2.3838720321655,3,versionB_stim.csv,ReadVersion.csv,Read,Read2,SOAP,DRINK,Study2,M,12,38,Test,User,-,,Recall,Recall1,2156,eat,0,1293,1434,0,0,,1
63d16398d05b8126c30c19ea,a6jkz86ruu,"Mediated Recall_Prolific",1,76,2023-02-05T19:32:33+00:00,1.7850861549377,3,versionB_stim.csv,ReadVersion.csv,Read,Read2,CHERRY,RED,Study2,F,25,39,Test,User,-,,Recall,Recall1,1553,,0,-1,-1,0,0,,1
63d16398d05b8126c30c19ea,a6jkz86ruu,"Mediated Recall_Prolific",1,77,2023-02-05T19:32:34+00:00,1.7139508724213,3,versionB_stim.csv,ReadVersion.csv,Read,Read2,CHISEL,HAMMER,Study2,F,23,43,Test,User,-,,Recall,Recall1,1487,hammer,100,909,1361,1,1,,1
63d16398d05b8126c30c19ea,a6jkz86ruu,"Mediated Recall_Prolific",1,78,2023-02-05T19:32:36+00:00,1.8725709915161,3,versionB_stim.csv,ReadVersion.csv,Read,Read2,WASP,BUG,Study2,F,34,14,Test,User,-,,Recall,Recall1,1646,sting,25,1122,1446,0,0,,1
63d16398d05b8126c30c19ea,a6jkz86ruu,"Mediated Recall_Prolific",1,79,2023-02-05T19:32:38+00:00,1.8999590873718,3,versionB_stim.csv,ReadVersion.csv,Read,Read2,INCENSE,SMELL,Study2,F,28,48,Test,User,-,,Recall,Recall1,1660,smell,100,1099,1442,1,1,,1
63d16398d05b8126c30c19ea,a6jkz86ruu,"Mediated Recall_Prolific",1,80,2023-02-05T19:32:40+00:00,1.4443500041962,3,versionB_stim.csv,ReadVersion.csv,Read,Read2,KING,VASE,Study2,U,36,35,Test,User,-,,Recall,Recall1,1209,,0,-1,-1,0,0,,1
63d16398d05b8126c30c19ea,a6jkz86ruu,"Mediated Recall_Prolific",1,81,2023-02-05T19:32:41+00:00,1.3350169658661,3,versionB_stim.csv,ReadVersion.csv,Read,Read2,RAKE,SEED,Study2,M,14,45,Test,User,-,,Recall,Recall1,1110,,0,-1,-1,0,0,,1
63d16398d05b8126c30c19ea,a6jkz86ruu,"Mediated Recall_Prolific",1,82,2023-02-05T19:32:43+00:00,2.3113439083099,3,versionB_stim.csv,ReadVersion.csv,Read,Read2,RAZOR,MUSCLE,Study2,M,20,31,Test,User,-,,Recall,Recall1,2099,slice,54.545454545455,1561,1977,0,0,,1
63d16398d05b8126c30c19ea,a6jkz86ruu,"Mediated Recall_Prolific",1,83,2023-02-05T19:32:45+00:00,1.3995649814606,3,versionB_stim.csv,ReadVersion.csv,Read,Read2,SUGAR,RIDDLE,Study2,U,40,12,Test,User,-,,Recall,Recall1,1171,,0,-1,-1,0,0,,1
63d16398d05b8126c30c19ea,a6jkz86ruu,"Mediated Recall_Prolific",1,84,2023-02-05T19:32:47+00:00,2.6172380447388,3,versionB_stim.csv,ReadVersion.csv,Read,Read2,CHOP,CUT,Study2,F,22,44,Test,User,-,,Recall,Recall1,2389,leg,0,1505,2267,0,0,,1
63d16398d05b8126c30c19ea,a6jkz86ruu,"Mediated Recall_Prolific",1,85,2023-02-05T19:32:49+00:00,2.0596981048584,3,versionB_stim.csv,ReadVersion.csv,Read,Read2,BRIDGE,WATER,Study2,F,35,34,Test,User,-,,Recall,Recall1,1822,,0,-1,-1,0,0,,1
63d16398d05b8126c30c19ea,a6jkz86ruu,"Mediated Recall_Prolific",1,86,2023-02-05T19:32:51+00:00,1.9765729904175,3,versionB_stim.csv,ReadVersion.csv,Read,Read2,NURSE,LAWYER,Study2,M,11,11,Test,User,-,,Recall,Recall1,1740,lawyer,100,1135,1611,1,1,,1
63d16398d05b8126c30c19ea,a6jkz86ruu,"Mediated Recall_Prolific",1,87,2023-02-05T19:32:53+00:00,1.8886189460754,3,versionB_stim.csv,ReadVersion.csv,Read,Read2,CASH,LEG,Study2,U,50,50,Test,User,-,,Recall,Recall1,1657,,0,-1,-1,0,0,,1
63d16398d05b8126c30c19ea,a6jkz86ruu,"Mediated Recall_Prolific",1,88,2023-02-05T19:32:58+00:00,4.9939320087433,3,versionB_stim.csv,ReadVersion.csv,Read,Read2,ARTERY,BRONZE,Study2,U,48,37,Test,User,-,,Recall,Recall1,4753,gold,20,3947,4234,0,0,,1
63d16398d05b8126c30c19ea,a6jkz86ruu,"Mediated Recall_Prolific",1,89,2023-02-05T19:33:01+00:00,2.8099060058594,3,versionB_stim.csv,ReadVersion.csv,Read,Read2,LEASE,TOIL,Study2,U,46,30,Test,User,-,,Recall,Recall1,2534,struggle,33.333333333333,1753,2420,0,0,,1
63d16398d05b8126c30c19ea,a6jkz86ruu,"Mediated Recall_Prolific",1,90,2023-02-05T19:33:03+00:00,2.3833179473877,3,versionB_stim.csv,ReadVersion.csv,Read,Read2,TRAP,CAVE,Study2,M,15,21,Test,User,-,,Recall,Recall1,2142,cave,100,1734,2032,1,1,,1
63d16398d05b8126c30c19ea,a6jkz86ruu,"Mediated Recall_Prolific",1,91,2023-02-05T19:33:05+00:00,1.1905009746552,3,versionB_stim.csv,ReadVersion.csv,Read,Read2,VALLEY,PEAK,Study2,M,18,27,Test,User,-,,Recall,Recall1,962,,0,-1,-1,0,0,,1
63d16398d05b8126c30c19ea,a6jkz86ruu,"Mediated Recall_Prolific",1,92,2023-02-05T19:33:08+00:00,3.4234001636505,3,versionB_stim.csv,ReadVersion.csv,Read,Read2,SUMMER,SNOW,Study2,M,6,20,Test,User,-,,Recall,Recall1,3207,snow,100,2764,2974,1,1,,1
63d16398d05b8126c30c19ea,a6jkz86ruu,"Mediated Recall_Prolific",1,93,2023-02-05T19:33:11+00:00,3.1479308605194,3,versionB_stim.csv,ReadVersion.csv,Read,Read2,WINDOW,KNOB,Study2,M,19,17,Test,User,-,,Recall,Recall1,2886,mirror,20,2174,2680,0,0,,1
63d16398d05b8126c30c19ea,a6jkz86ruu,"Mediated Recall_Prolific",1,94,2023-02-05T19:33:13+00:00,1.3946781158447,3,versionB_stim.csv,ReadVersion.csv,Read,Read2,OVEN,BASKET,Study2,M,16,26,Test,User,-,,Recall,Recall1,1167,,0,-1,-1,0,0,,1
63d16398d05b8126c30c19ea,a6jkz86ruu,"Mediated Recall_Prolific",1,95,2023-02-05T19:33:14+00:00,1.7428889274597,3,versionB_stim.csv,ReadVersion.csv,Read,Read2,EYES,SMELL,Study2,M,10,32,Test,User,-,,Recall,Recall1,1527,,0,-1,-1,0,0,,1
63d16398d05b8126c30c19ea,a6jkz86ruu,"Mediated Recall_Prolific",1,96,2023-02-05T19:33:16+00:00,1.8933091163635,3,versionB_stim.csv,ReadVersion.csv,Read,Read2,DEATH,BUSINESS,Study2,U,44,7,Test,User,-,,Recall,Recall1,1646,,0,-1,-1,0,0,,1
63d16398d05b8126c30c19ea,a6jkz86ruu,"Mediated Recall_Prolific",1,97,2023-02-05T19:33:18+00:00,1.9116048812866,3,versionB_stim.csv,ReadVersion.csv,Read,Read2,ATTIRE,CLOTHES,Study2,F,24,8,Test,User,-,,Recall,Recall1,1682,clothes,100,1145,1572,1,1,,1
63d16398d05b8126c30c19ea,a6jkz86ruu,"Mediated Recall_Prolific",1,98,2023-02-05T19:33:20+00:00,1.4632449150085,3,versionB_stim.csv,ReadVersion.csv,Read,Read2,BLAZE,FIRE,Study2,F,26,46,Test,User,-,,Recall,Recall1,1229,,0,-1,-1,0,0,,1
63d16398d05b8126c30c19ea,a6jkz86ruu,"Mediated Recall_Prolific",1,99,2023-02-05T19:33:21+00:00,1.082426071167,3,versionB_stim.csv,ReadVersion.csv,Read,Read2,REALITY,ISLAND,Study2,M,9,41,Test,User,-,,Recall,Recall1,836,,0,-1,-1,0,0,,1
63d16398d05b8126c30c19ea,a6jkz86ruu,"Mediated Recall_Prolific",1,100,2023-02-05T19:33:22+00:00,1.7930319309235,3,versionB_stim.csv,ReadVersion.csv,Read,Read2,BOTH,OUNCE,Study2,U,47,9,Test,User,-,,Recall,Recall1,1547,each,22.222222222222,1023,1299,0,0,,1
63d16398d05b8126c30c19ea,a6jkz86ruu,"Mediated Recall_Prolific",1,101,2023-02-05T19:33:24+00:00,1.8400230407715,3,versionB_stim.csv,ReadVersion.csv,Read,Read2,SICK,HIDE,Study2,U,45,42,Test,User,-,,Recall,Recall1,1608,tired,44.444444444444,1062,1495,0,0,,1
63d16398d05b8126c30c19ea,a6jkz86ruu,"Mediated Recall_Prolific",1,102,2023-02-05T19:33:26+00:00,1.7801690101624,3,versionB_stim.csv,ReadVersion.csv,Read,Read2,LEAGUE,BASEBALL,Study2,F,29,40,Test,User,-,,Recall,Recall1,1461,,0,-1,-1,0,0,,1
63d16398d05b8126c30c19ea,a6jkz86ruu,"Mediated Recall_Prolific",1,103,2023-02-05T19:33:30+00:00,3.5687110424042,3,versionB_stim.csv,ReadVersion.csv,Read,Read2,STRONG,ACCIDENT,Study2,U,39,22,Test,User,-,,Recall,Recall1,3331,feather,26.666666666667,2623,3202,0,0,,1
63d16398d05b8126c30c19ea,a6jkz86ruu,"Mediated Recall_Prolific",1,104,2023-02-05T19:33:31+00:00,1.2106659412384,3,versionB_stim.csv,ReadVersion.csv,Read,Read2,ART,WOLF,Study2,U,38,24,Test,User,-,,Recall,Recall1,973,,0,-1,-1,0,0,,1
63d16398d05b8126c30c19ea,a6jkz86ruu,"Mediated Recall_Prolific",1,105,2023-02-05T19:33:32+00:00,1.5222201347351,3,versionB_stim.csv,ReadVersion.csv,Read,Read2,FEUD,FIGHT,Study2,F,31,25,Test,User,-,,Recall,Recall1,1314,fight,100,879,1199,1,1,,1
63d16398d05b8126c30c19ea,a6jkz86ruu,"Mediated Recall_Prolific",1,106,2023-02-05T19:33:43+00:00,10.937441825867,3,versionB_stim.csv,ReadVersion.csv,Read,Read2,,,,,,0,Instruct,-,10,"You will now be presented with a new set of word pairs. Please study each pair. Remember that your memory will be tested! When finished, press Enter to move to the next pair.",Initial_Instruct,Instruct4,10584,,,-1,-1,,,,0.936
63d16398d05b8126c30c19ea,a6jkz86ruu,"Mediated Recall_Prolific",1,107,2023-02-05T19:33:44+00:00,0.87451219558716,3,versionB_stim.csv,ReadVersion.csv,Read,Read2,,,,,,0,Instruct,User,-,"Press Enter when you are readty to begin",,Instruct11,656,,,-1,-1,,,,1
63d16398d05b8126c30c19ea,a6jkz86ruu,"Mediated Recall_Prolific",1,108,2023-02-05T19:33:47+00:00,2.7376079559326,3,versionB_stim.csv,ReadVersion.csv,Read,Read2,NOODLE,STRING,BUFFER4,Buffer,52,54,Study,User,-,,Study/JOL,BUFFER2,2500,,,-1,-1,,,,1
63d16398d05b8126c30c19ea,a6jkz86ruu,"Mediated Recall_Prolific",1,109,2023-02-05T19:33:48+00:00,1.526967048645,3,versionB_stim.csv,ReadVersion.csv,Read,Read2,TREES,GREEN,BUFFER1,Buffer,56,58,Study,User,-,,Study/JOL,BUFFER2,1323,,,-1,-1,,,,1
63d16398d05b8126c30c19ea,a6jkz86ruu,"Mediated Recall_Prolific",1,110,2023-02-05T19:33:50+00:00,1.762904882431,3,versionB_stim.csv,ReadVersion.csv,Read,Read2,SCARE,FRIGHT,BUFFER1,Buffer,59,61,Study,User,-,,Study/JOL,BUFFER2,1525,,,-1,-1,,,,1
63d16398d05b8126c30c19ea,a6jkz86ruu,"Mediated Recall_Prolific",1,111,2023-02-05T19:33:52+00:00,1.7416391372681,3,versionB_stim.csv,ReadVersion.csv,Read,Read2,PITCHER,CATCHER,BUFFER1,Buffer,57,57,Study,User,-,,Study/JOL,BUFFER2,1504,,,-1,-1,,,,1
63d16398d05b8126c30c19ea,a6jkz86ruu,"Mediated Recall_Prolific",1,112,2023-02-05T19:33:53+00:00,1.3211147785187,3,versionB_stim.csv,ReadVersion.csv,Read,Read2,GEESE,GOOSE,BUFFER2,Buffer,106,110,Study,User,-,,Study/JOL,BUFFER2,1106,,,-1,-1,,,,1
63d16398d05b8126c30c19ea,a6jkz86ruu,"Mediated Recall_Prolific",1,113,2023-02-05T19:33:55+00:00,1.4000570774078,3,versionB_stim.csv,ReadVersion.csv,Read,Read2,BIRTHDAY,PIE,Study1,M,64,96,Study,User,-,,Study/JOL,"Study Phase2",1197,,,-1,-1,,,,1
63d16398d05b8126c30c19ea,a6jkz86ruu,"Mediated Recall_Prolific",1,114,2023-02-05T19:33:56+00:00,1.7892360687256,3,versionB_stim.csv,ReadVersion.csv,Read,Read2,HORSE,WHEEL,Study1,M,69,91,Study,User,-,,Study/JOL,"Study Phase2",1576,,,-1,-1,,,,1
63d16398d05b8126c30c19ea,a6jkz86ruu,"Mediated Recall_Prolific",1,115,2023-02-05T19:33:58+00:00,1.5695779323578,3,versionB_stim.csv,ReadVersion.csv,Read,Read2,MULE,DONKEY,Study1,F,79,82,Study,User,-,,Study/JOL,"Study Phase2",1369,,,-1,-1,,,,1
63d16398d05b8126c30c19ea,a6jkz86ruu,"Mediated Recall_Prolific",1,116,2023-02-05T19:34:00+00:00,1.4959170818329,3,versionB_stim.csv,ReadVersion.csv,Read,Read2,WAGE,MONEY,Study1,F,77,78,Study,User,-,,Study/JOL,"Study Phase2",1268,,,-1,-1,,,,1
63d16398d05b8126c30c19ea,a6jkz86ruu,"Mediated Recall_Prolific",1,117,2023-02-05T19:34:01+00:00,1.6683368682861,3,versionB_stim.csv,ReadVersion.csv,Read,Read2,BEACH,BOX,Study1,M,62,72,Study,User,-,,Study/JOL,"Study Phase2",1428,,,-1,-1,,,,1
63d16398d05b8126c30c19ea,a6jkz86ruu,"Mediated Recall_Prolific",1,118,2023-02-05T19:34:02+00:00,1.168154001236,3,versionB_stim.csv,ReadVersion.csv,Read,Read2,NAP,SLEEP,Study1,F,84,94,Study,User,-,,Study/JOL,"Study Phase2",934,,,-1,-1,,,,1
63d16398d05b8126c30c19ea,a6jkz86ruu,"Mediated Recall_Prolific",1,119,2023-02-05T19:34:04+00:00,1.8880829811096,3,versionB_stim.csv,ReadVersion.csv,Read,Read2,ROUGH,SILK,Study1,M,65,67,Study,User,-,,Study/JOL,"Study Phase2",1415,,,-1,-1,,,,1
63d16398d05b8126c30c19ea,a6jkz86ruu,"Mediated Recall_Prolific",1,120,2023-02-05T19:34:06+00:00,1.9507210254669,3,versionB_stim.csv,ReadVersion.csv,Read,Read2,TOOTH,HAIR,Study1,M,74,97,Study,User,-,,Study/JOL,"Study Phase2",1704,,,-1,-1,,,,1
63d16398d05b8126c30c19ea,a6jkz86ruu,"Mediated Recall_Prolific",1,121,2023-02-05T19:34:08+00:00,1.7564690113068,3,versionB_stim.csv,ReadVersion.csv,Read,Read2,AFFECTION,LOVE,Study1,F,86,88,Study,User,-,,Study/JOL,"Study Phase2",1518,,,-1,-1,,,,1
63d16398d05b8126c30c19ea,a6jkz86ruu,"Mediated Recall_Prolific",1,122,2023-02-05T19:34:10+00:00,1.8655891418457,3,versionB_stim.csv,ReadVersion.csv,Read,Read2,MAZE,PHONE,Study1,U,97,87,Study,User,-,,Study/JOL,"Study Phase2",1629,,,-1,-1,,,,1
63d16398d05b8126c30c19ea,a6jkz86ruu,"Mediated Recall_Prolific",1,123,2023-02-05T19:34:11+00:00,1.5269908905029,3,versionB_stim.csv,ReadVersion.csv,Read,Read2,TUNA,FISH,Study1,F,90,84,Study,User,-,,Study/JOL,"Study Phase2",1293,,,-1,-1,,,,1
63d16398d05b8126c30c19ea,a6jkz86ruu,"Mediated Recall_Prolific",1,124,2023-02-05T19:34:13+00:00,1.4192290306091,3,versionB_stim.csv,ReadVersion.csv,Read,Read2,LISTEN,FICTION,Study1,U,99,74,Study,User,-,,Study/JOL,"Study Phase2",1187,,,-1,-1,,,,1
63d16398d05b8126c30c19ea,a6jkz86ruu,"Mediated Recall_Prolific",1,125,2023-02-05T19:34:14+00:00,1.2621788978577,3,versionB_stim.csv,ReadVersion.csv,Read,Read2,SCALP,HEAD,Study1,F,78,71,Study,User,-,,Study/JOL,"Study Phase2",983,,,-1,-1,,,,1
63d16398d05b8126c30c19ea,a6jkz86ruu,"Mediated Recall_Prolific",1,126,2023-02-05T19:34:16+00:00,1.8801760673523,3,versionB_stim.csv,ReadVersion.csv,Read,Read2,CAKE,HAND,Study1,U,104,77,Study,User,-,,Study/JOL,"Study Phase2",1504,,,-1,-1,,,,1
63d16398d05b8126c30c19ea,a6jkz86ruu,"Mediated Recall_Prolific",1,127,2023-02-05T19:34:18+00:00,1.737321138382,3,versionB_stim.csv,ReadVersion.csv,Read,Read2,SHELL,SHAKE,Study1,U,98,85,Study,User,-,,Study/JOL,"Study Phase2",1479,,,-1,-1,,,,1
63d16398d05b8126c30c19ea,a6jkz86ruu,"Mediated Recall_Prolific",1,128,2023-02-05T19:34:19+00:00,1.3796429634094,3,versionB_stim.csv,ReadVersion.csv,Read,Read2,ORCHID,FLOWER,Study1,F,89,83,Study,User,-,,Study/JOL,"Study Phase2",1148,,,-1,-1,,,,1
63d16398d05b8126c30c19ea,a6jkz86ruu,"Mediated Recall_Prolific",1,129,2023-02-05T19:34:20+00:00,1.3521559238434,3,versionB_stim.csv,ReadVersion.csv,Read,Read2,GIVE,STEAK,Study1,U,93,106,Study,User,-,,Study/JOL,"Study Phase2",1145,,,-1,-1,,,,1
63d16398d05b8126c30c19ea,a6jkz86ruu,"Mediated Recall_Prolific",1,130,2023-02-05T19:34:22+00:00,1.4669620990753,3,versionB_stim.csv,ReadVersion.csv,Read,Read2,DAY,DARK,Study1,M,73,105,Study,User,-,,Study/JOL,"Study Phase2",1256,,,-1,-1,,,,1
63d16398d05b8126c30c19ea,a6jkz86ruu,"Mediated Recall_Prolific",1,131,2023-02-05T19:34:23+00:00,1.3412117958069,3,versionB_stim.csv,ReadVersion.csv,Read,Read2,SIP,DRINK,Study1,F,87,73,Study,User,-,,Study/JOL,"Study Phase2",1068,,,-1,-1,,,,1
63d16398d05b8126c30c19ea,a6jkz86ruu,"Mediated Recall_Prolific",1,132,2023-02-05T19:34:25+00:00,1.6198961734772,3,versionB_stim.csv,ReadVersion.csv,Read,Read2,CRY,BOTTLE,Study1,M,71,99,Study,User,-,,Study/JOL,"Study Phase2",1406,,,-1,-1,,,,1
63d16398d05b8126c30c19ea,a6jkz86ruu,"Mediated Recall_Prolific",1,133,2023-02-05T19:34:26+00:00,1.5897119045258,3,versionB_stim.csv,ReadVersion.csv,Read,Read2,CEILING,CARPET,Study1,M,70,98,Study,User,-,,Study/JOL,"Study Phase2",1361,,,-1,-1,,,,1
63d16398d05b8126c30c19ea,a6jkz86ruu,"Mediated Recall_Prolific",1,134,2023-02-05T19:34:29+00:00,2.265429019928,3,versionB_stim.csv,ReadVersion.csv,Read,Read2,TEMPERATURE,MORNING,Study1,U,103,68,Study,User,-,,Study/JOL,"Study Phase2",2024,,,-1,-1,,,,1
63d16398d05b8126c30c19ea,a6jkz86ruu,"Mediated Recall_Prolific",1,135,2023-02-05T19:34:30+00:00,1.409029006958,3,versionB_stim.csv,ReadVersion.csv,Read,Read2,MULE,DONKEY,Study1,F,85,92,Study,User,-,,Study/JOL,"Study Phase2",1178,,,-1,-1,,,,1
63d16398d05b8126c30c19ea,a6jkz86ruu,"Mediated Recall_Prolific",1,136,2023-02-05T19:34:32+00:00,2.000941991806,3,versionB_stim.csv,ReadVersion.csv,Read,Read2,WAR,QUIET,Study1,M,63,104,Study,User,-,,Study/JOL,"Study Phase2",1772,,,-1,-1,,,,1
63d16398d05b8126c30c19ea,a6jkz86ruu,"Mediated Recall_Prolific",1,137,2023-02-05T19:34:34+00:00,1.4799830913544,3,versionB_stim.csv,ReadVersion.csv,Read,Read2,SIGN,TICK,Study1,U,102,62,Study,User,-,,Study/JOL,"Study Phase2",1249,,,-1,-1,,,,1
63d16398d05b8126c30c19ea,a6jkz86ruu,"Mediated Recall_Prolific",1,138,2023-02-05T19:34:35+00:00,1.3981750011444,3,versionB_stim.csv,ReadVersion.csv,Read,Read2,LION,STRIPES,Study1,M,61,79,Study,User,-,,Study/JOL,"Study Phase2",1167,,,-1,-1,,,,1
63d16398d05b8126c30c19ea,a6jkz86ruu,"Mediated Recall_Prolific",1,139,2023-02-05T19:34:36+00:00,1.3756840229034,3,versionB_stim.csv,ReadVersion.csv,Read,Read2,WORD,SENTENCE,Study1,F,82,103,Study,User,-,,Study/JOL,"Study Phase2",1168,,,-1,-1,,,,1
63d16398d05b8126c30c19ea,a6jkz86ruu,"Mediated Recall_Prolific",1,140,2023-02-05T19:34:38+00:00,1.5305669307709,3,versionB_stim.csv,ReadVersion.csv,Read,Read2,HARD,COTTON,Study1,M,75,80,Study,User,-,,Study/JOL,"Study Phase2",1303,,,-1,-1,,,,1
63d16398d05b8126c30c19ea,a6jkz86ruu,"Mediated Recall_Prolific",1,141,2023-02-05T19:34:39+00:00,1.5708000659943,3,versionB_stim.csv,ReadVersion.csv,Read,Read2,CREDIT,CARD,Study1,F,88,95,Study,User,-,,Study/JOL,"Study Phase2",1323,,,-1,-1,,,,1
63d16398d05b8126c30c19ea,a6jkz86ruu,"Mediated Recall_Prolific",1,142,2023-02-05T19:34:41+00:00,1.3899509906769,3,versionB_stim.csv,ReadVersion.csv,Read,Read2,MIRROR,MAROON,Study1,U,91,86,Study,User,-,,Study/JOL,"Study Phase2",1162,,,-1,-1,,,,1
63d16398d05b8126c30c19ea,a6jkz86ruu,"Mediated Recall_Prolific",1,143,2023-02-05T19:34:42+00:00,1.2131350040436,3,versionB_stim.csv,ReadVersion.csv,Read,Read2,SOON,BELT,Study1,U,101,100,Study,User,-,,Study/JOL,"Study Phase2",993,,,-1,-1,,,,1
63d16398d05b8126c30c19ea,a6jkz86ruu,"Mediated Recall_Prolific",1,144,2023-02-05T19:34:43+00:00,1.2884278297424,3,versionB_stim.csv,ReadVersion.csv,Read,Read2,SWAN,BIRD,Study1,F,81,90,Study,User,-,,Study/JOL,"Study Phase2",1092,,,-1,-1,,,,1
63d16398d05b8126c30c19ea,a6jkz86ruu,"Mediated Recall_Prolific",1,145,2023-02-05T19:34:45+00:00,1.2953631877899,3,versionB_stim.csv,ReadVersion.csv,Read,Read2,BAT,BOUNCE,Study1,M,67,89,Study,User,-,,Study/JOL,"Study Phase2",1077,,,-1,-1,,,,1
63d16398d05b8126c30c19ea,a6jkz86ruu,"Mediated Recall_Prolific",1,146,2023-02-05T19:34:46+00:00,1.2311329841614,3,versionB_stim.csv,ReadVersion.csv,Read,Read2,FUZZY,BANG,Study1,U,105,70,Study,User,-,,Study/JOL,"Study Phase2",1012,,,-1,-1,,,,1
63d16398d05b8126c30c19ea,a6jkz86ruu,"Mediated Recall_Prolific",1,147,2023-02-05T19:34:47+00:00,1.4153029918671,3,versionB_stim.csv,ReadVersion.csv,Read,Read2,HYGIENE,CLEAN,Study1,F,83,93,Study,User,-,,Study/JOL,"Study Phase2",1217,,,-1,-1,,,,1
63d16398d05b8126c30c19ea,a6jkz86ruu,"Mediated Recall_Prolific",1,148,2023-02-05T19:34:49+00:00,1.3745279312134,3,versionB_stim.csv,ReadVersion.csv,Read,Read2,CRACKLE,ELECTION,Study1,U,94,65,Study,User,-,,Study/JOL,"Study Phase2",1152,,,-1,-1,,,,1
63d16398d05b8126c30c19ea,a6jkz86ruu,"Mediated Recall_Prolific",1,149,2023-02-05T19:34:50+00:00,1.3834300041199,3,versionB_stim.csv,ReadVersion.csv,Read,Read2,ROOT,PLANT,Study1,F,80,75,Study,User,-,,Study/JOL,"Study Phase2",1157,,,-1,-1,,,,1
63d16398d05b8126c30c19ea,a6jkz86ruu,"Mediated Recall_Prolific",1,150,2023-02-05T19:34:51+00:00,1.298141002655,3,versionB_stim.csv,ReadVersion.csv,Read,Read2,CIRCLE,DANCE,Study1,M,68,64,Study,User,-,,Study/JOL,"Study Phase2",1078,,,-1,-1,,,,1
63d16398d05b8126c30c19ea,a6jkz86ruu,"Mediated Recall_Prolific",1,151,2023-02-05T19:34:53+00:00,1.4508838653564,3,versionB_stim.csv,ReadVersion.csv,Read,Read2,VEHICLE,CHARM,Study1,U,95,101,Study,User,-,,Study/JOL,"Study Phase2",1228,,,-1,-1,,,,1
63d16398d05b8126c30c19ea,a6jkz86ruu,"Mediated Recall_Prolific",1,152,2023-02-05T19:34:54+00:00,1.3965730667114,3,versionB_stim.csv,ReadVersion.csv,Read,Read2,MEAT,KEYS,Study1,U,96,63,Study,User,-,,Study/JOL,"Study Phase2",1158,,,-1,-1,,,,1
63d16398d05b8126c30c19ea,a6jkz86ruu,"Mediated Recall_Prolific",1,153,2023-02-05T19:34:55+00:00,1.2387800216675,3,versionB_stim.csv,ReadVersion.csv,Read,Read2,STRETCH,CLOTH,Study1,U,92,102,Study,User,-,,Study/JOL,"Study Phase2",1007,,,-1,-1,,,,1
63d16398d05b8126c30c19ea,a6jkz86ruu,"Mediated Recall_Prolific",1,154,2023-02-05T19:34:57+00:00,1.2940819263458,3,versionB_stim.csv,ReadVersion.csv,Read,Read2,WEDDING,FINGER,Study1,M,72,76,Study,User,-,,Study/JOL,"Study Phase2",1090,,,-1,-1,,,,1
63d16398d05b8126c30c19ea,a6jkz86ruu,"Mediated Recall_Prolific",1,155,2023-02-05T19:34:58+00:00,1.6251521110535,3,versionB_stim.csv,ReadVersion.csv,Read,Read2,TREE,SYRUP,Study1,M,66,69,Study,User,-,,Study/JOL,"Study Phase2",1410,,,-1,-1,,,,1
63d16398d05b8126c30c19ea,a6jkz86ruu,"Mediated Recall_Prolific",1,156,2023-02-05T19:35:00+00:00,1.3295300006866,3,versionB_stim.csv,ReadVersion.csv,Read,Read2,LITTER,TRASH,Study1,F,76,66,Study,User,-,,Study/JOL,"Study Phase2",1107,,,-1,-1,,,,1
63d16398d05b8126c30c19ea,a6jkz86ruu,"Mediated Recall_Prolific",1,157,2023-02-05T19:35:01+00:00,1.3720359802246,3,versionB_stim.csv,ReadVersion.csv,Read,Read2,KEYS,ROD,Study1,U,100,81,Study,User,-,,Study/JOL,"Study Phase2",1005,,,-1,-1,,,,1
63d16398d05b8126c30c19ea,a6jkz86ruu,"Mediated Recall_Prolific",1,158,2023-02-05T19:35:02+00:00,1.3879239559174,3,versionB_stim.csv,ReadVersion.csv,Read,Read2,SPACE,JAM,BUFFER1,Buffer,60,59,Study,User,-,,Study/JOL,BUFFER2,1188,,,-1,-1,,,,1
63d16398d05b8126c30c19ea,a6jkz86ruu,"Mediated Recall_Prolific",1,159,2023-02-05T19:35:04+00:00,1.3115401268005,3,versionB_stim.csv,ReadVersion.csv,Read,Read2,CARROT,POTATO,BUFFER4,Buffer,51,56,Study,User,-,,Study/JOL,BUFFER2,1090,,,-1,-1,,,,1
63d16398d05b8126c30c19ea,a6jkz86ruu,"Mediated Recall_Prolific",1,160,2023-02-05T19:35:06+00:00,1.8047499656677,3,versionB_stim.csv,ReadVersion.csv,Read,Read2,CAMP,ADVENTURE,BUFFER4,Buffer,55,52,Study,User,-,,Study/JOL,BUFFER2,1571,,,-1,-1,,,,1
63d16398d05b8126c30c19ea,a6jkz86ruu,"Mediated Recall_Prolific",1,161,2023-02-05T19:35:07+00:00,1.0551400184631,3,versionB_stim.csv,ReadVersion.csv,Read,Read2,PEANUT,BUTTER,BUFFER1,Buffer,58,60,Study,User,-,,Study/JOL,BUFFER2,832,,,-1,-1,,,,1
63d16398d05b8126c30c19ea,a6jkz86ruu,"Mediated Recall_Prolific",1,162,2023-02-05T19:35:08+00:00,0.96712303161621,3,versionB_stim.csv,ReadVersion.csv,Read,Read2,MOON,SPACE,BUFFER2,Buffer,109,108,Study,User,-,,Study/JOL,BUFFER2,720,,,-1,-1,,,,1
63d16398d05b8126c30c19ea,a6jkz86ruu,"Mediated Recall_Prolific",1,163,2023-02-05T19:35:08+00:00,0.83010601997375,3,versionB_stim.csv,ReadVersion.csv,Read,Read2,,,,,,0,Instruct,User,-,"You have completed this section. Please press Enter.",Filler_Instruction,Instruct2,606,,,-1,-1,,,,1
63d16398d05b8126c30c19ea,a6jkz86ruu,"Mediated Recall_Prolific",1,164,2023-02-05T19:37:09+00:00,120.40286898613,3,versionB_stim.csv,ReadVersion.csv,Read,Read2,,,,,,0,FreeRecall,120,120,"Please list the 50 US states in alphabetical order. The task will automatically advance to the next screen after two minutes.",,Filler1,120001,"alabama alaska arizona arkansas california colorado connecticut delaware georgia hawaii idaho illinois indiana iowa kansas kentucky louisiana maine maryland massachusettes michigan new hampshire nevada south dakota sou ",0,2997,119952,0,0,,1
63d16398d05b8126c30c19ea,a6jkz86ruu,"Mediated Recall_Prolific",1,165,2023-02-05T19:37:23+00:00,14.108731985092,3,versionB_stim.csv,ReadVersion.csv,Read,Read2,,,,,,0,Instruct,-,10,"You will now be presented with the first word from each of the previously studied item pairs. Please type the missing word. If you do not know the word, you may guess or press Enter to skip forward to the next pair.",,Instruct3,13709,,,-1,-1,,,,1
63d16398d05b8126c30c19ea,a6jkz86ruu,"Mediated Recall_Prolific",1,166,2023-02-05T19:37:25+00:00,2.5256998538971,3,versionB_stim.csv,ReadVersion.csv,Read,Read2,GIVE,STEAK,Study1,U,93,106,Test,User,-,,Recall,Recall2,2251,take,66.666666666667,1892,2132,0,0,,1
63d16398d05b8126c30c19ea,a6jkz86ruu,"Mediated Recall_Prolific",1,167,2023-02-05T19:37:27+00:00,1.8339681625366,3,versionB_stim.csv,ReadVersion.csv,Read,Read2,AFFECTION,LOVE,Study1,F,86,88,Test,User,-,,Recall,Recall2,1592,love,100,1232,1463,1,1,,1
63d16398d05b8126c30c19ea,a6jkz86ruu,"Mediated Recall_Prolific",1,168,2023-02-05T19:37:29+00:00,1.8346269130707,3,versionB_stim.csv,ReadVersion.csv,Read,Read2,ROOT,PLANT,Study1,F,80,75,Test,User,-,,Recall,Recall2,1590,plant,100,907,1468,1,1,,1
63d16398d05b8126c30c19ea,a6jkz86ruu,"Mediated Recall_Prolific",1,169,2023-02-05T19:37:31+00:00,1.8542830944061,3,versionB_stim.csv,ReadVersion.csv,Read,Read2,WORD,SENTENCE,Study1,F,82,103,Test,User,-,,Recall,Recall2,1630,,0,-1,-1,0,0,,1
63d16398d05b8126c30c19ea,a6jkz86ruu,"Mediated Recall_Prolific",1,170,2023-02-05T19:37:33+00:00,2.0547249317169,3,versionB_stim.csv,ReadVersion.csv,Read,Read2,MIRROR,MAROON,Study1,U,91,86,Test,User,-,,Recall,Recall2,1835,maroon,100,1134,1668,1,1,,1
63d16398d05b8126c30c19ea,a6jkz86ruu,"Mediated Recall_Prolific",1,171,2023-02-05T19:37:35+00:00,2.2066719532013,3,versionB_stim.csv,ReadVersion.csv,Read,Read2,WAR,QUIET,Study1,M,63,104,Test,User,-,,Recall,Recall2,1935,fight,40,1286,1676,0,0,,1
63d16398d05b8126c30c19ea,a6jkz86ruu,"Mediated Recall_Prolific",1,172,2023-02-05T19:37:37+00:00,1.4315550327301,3,versionB_stim.csv,ReadVersion.csv,Read,Read2,SCALP,HEAD,Study1,F,78,71,Test,User,-,,Recall,Recall2,1202,head,100,853,1088,1,1,,1
63d16398d05b8126c30c19ea,a6jkz86ruu,"Mediated Recall_Prolific",1,173,2023-02-05T19:37:38+00:00,1.8129498958588,3,versionB_stim.csv,ReadVersion.csv,Read,Read2,SIGN,TICK,Study1,U,102,62,Test,User,-,,Recall,Recall2,1595,,0,-1,-1,0,0,,1
63d16398d05b8126c30c19ea,a6jkz86ruu,"Mediated Recall_Prolific",1,174,2023-02-05T19:37:40+00:00,1.6383919715881,3,versionB_stim.csv,ReadVersion.csv,Read,Read2,NAP,SLEEP,Study1,F,84,94,Test,User,-,,Recall,Recall2,1402,sleep,100,843,1182,1,1,,1
63d16398d05b8126c30c19ea,a6jkz86ruu,"Mediated Recall_Prolific",1,175,2023-02-05T19:37:42+00:00,2.0176770687103,3,versionB_stim.csv,ReadVersion.csv,Read,Read2,HORSE,WHEEL,Study1,M,69,91,Test,User,-,,Recall,Recall2,1767,wheel,100,1177,1588,1,1,,1
63d16398d05b8126c30c19ea,a6jkz86ruu,"Mediated Recall_Prolific",1,176,2023-02-05T19:37:46+00:00,3.587100982666,3,versionB_stim.csv,ReadVersion.csv,Read,Read2,CAKE,HAND,Study1,U,104,77,Test,User,-,,Recall,Recall2,3350,pie,0,1575,2816,0,0,,1
63d16398d05b8126c30c19ea,a6jkz86ruu,"Mediated Recall_Prolific",1,177,2023-02-05T19:37:48+00:00,2.1304249763489,3,versionB_stim.csv,ReadVersion.csv,Read,Read2,STRETCH,CLOTH,Study1,U,92,102,Test,User,-,,Recall,Recall2,1904,,0,-1,-1,0,0,,1
63d16398d05b8126c30c19ea,a6jkz86ruu,"Mediated Recall_Prolific",1,178,2023-02-05T19:37:49+00:00,1.6322860717773,3,versionB_stim.csv,ReadVersion.csv,Read,Read2,BAT,BOUNCE,Study1,M,67,89,Test,User,-,,Recall,Recall2,1398,b,28.571428571429,1104,1104,0,0,,1
63d16398d05b8126c30c19ea,a6jkz86ruu,"Mediated Recall_Prolific",1,179,2023-02-05T19:37:51+00:00,1.8280410766602,3,versionB_stim.csv,ReadVersion.csv,Read,Read2,LISTEN,FICTION,Study1,U,99,74,Test,User,-,,Recall,Recall2,1595,hear,0,1241,1480,0,0,,1
63d16398d05b8126c30c19ea,a6jkz86ruu,"Mediated Recall_Prolific",1,180,2023-02-05T19:37:53+00:00,2.2005798816681,3,versionB_stim.csv,ReadVersion.csv,Read,Read2,CRACKLE,ELECTION,Study1,U,94,65,Test,User,-,,Recall,Recall2,1968,,0,-1,-1,0,0,,1
63d16398d05b8126c30c19ea,a6jkz86ruu,"Mediated Recall_Prolific",1,181,2023-02-05T19:37:55+00:00,1.9559960365295,3,versionB_stim.csv,ReadVersion.csv,Read,Read2,SIP,DRINK,Study1,F,87,73,Test,User,-,,Recall,Recall2,1584,drink,100,887,1369,1,1,,1
63d16398d05b8126c30c19ea,a6jkz86ruu,"Mediated Recall_Prolific",1,182,2023-02-05T19:37:57+00:00,1.7820971012115,3,versionB_stim.csv,ReadVersion.csv,Read,Read2,WAGE,MONEY,Study1,F,77,78,Test,User,-,,Recall,Recall2,1473,,0,-1,-1,0,0,,1
63d16398d05b8126c30c19ea,a6jkz86ruu,"Mediated Recall_Prolific",1,183,2023-02-05T19:37:59+00:00,1.8549258708954,3,versionB_stim.csv,ReadVersion.csv,Read,Read2,VEHICLE,CHARM,Study1,U,95,101,Test,User,-,,Recall,Recall2,1628,car,75,1358,1520,0,1,,1
63d16398d05b8126c30c19ea,a6jkz86ruu,"Mediated Recall_Prolific",1,184,2023-02-05T19:38:01+00:00,1.645779132843,3,versionB_stim.csv,ReadVersion.csv,Read,Read2,CRY,BOTTLE,Study1,M,71,99,Test,User,-,,Recall,Recall2,1419,sob,22.222222222222,1024,1169,0,0,,1
63d16398d05b8126c30c19ea,a6jkz86ruu,"Mediated Recall_Prolific",1,185,2023-02-05T19:38:02+00:00,1.3057239055634,3,versionB_stim.csv,ReadVersion.csv,Read,Read2,HARD,COTTON,Study1,M,75,80,Test,User,-,,Recall,Recall2,1042,,0,-1,-1,0,0,,1
63d16398d05b8126c30c19ea,a6jkz86ruu,"Mediated Recall_Prolific",1,186,2023-02-05T19:38:04+00:00,1.8228380680084,3,versionB_stim.csv,ReadVersion.csv,Read,Read2,MEAT,KEYS,Study1,U,96,63,Test,User,-,,Recall,Recall2,1595,,0,-1,-1,0,0,,1
63d16398d05b8126c30c19ea,a6jkz86ruu,"Mediated Recall_Prolific",1,187,2023-02-05T19:38:05+00:00,1.6042280197144,3,versionB_stim.csv,ReadVersion.csv,Read,Read2,TUNA,FISH,Study1,F,90,84,Test,User,-,,Recall,Recall2,1370,fish,100,962,1195,1,1,,1
63d16398d05b8126c30c19ea,a6jkz86ruu,"Mediated Recall_Prolific",1,188,2023-02-05T19:38:08+00:00,2.0925498008728,3,versionB_stim.csv,ReadVersion.csv,Read,Read2,TEMPERATURE,MORNING,Study1,U,103,68,Test,User,-,,Recall,Recall2,1874,high,36.363636363636,1484,1715,0,0,,1
63d16398d05b8126c30c19ea,a6jkz86ruu,"Mediated Recall_Prolific",1,189,2023-02-05T19:38:09+00:00,1.9663209915161,3,versionB_stim.csv,ReadVersion.csv,Read,Read2,TOOTH,HAIR,Study1,M,74,97,Test,User,-,,Recall,Recall2,1650,ache,25,1234,1513,0,0,,1
63d16398d05b8126c30c19ea,a6jkz86ruu,"Mediated Recall_Prolific",1,190,2023-02-05T19:38:12+00:00,2.019944190979,3,versionB_stim.csv,ReadVersion.csv,Read,Read2,MULE,DONKEY,Study1,F,79,82,Test,User,-,,Recall,Recall2,1778,donkey,100,976,1515,1,1,,1
63d16398d05b8126c30c19ea,a6jkz86ruu,"Mediated Recall_Prolific",1,191,2023-02-05T19:38:13+00:00,1.3463928699493,3,versionB_stim.csv,ReadVersion.csv,Read,Read2,SWAN,BIRD,Study1,F,81,90,Test,User,-,,Recall,Recall2,1117,,0,-1,-1,0,0,,1
63d16398d05b8126c30c19ea,a6jkz86ruu,"Mediated Recall_Prolific",1,192,2023-02-05T19:38:14+00:00,1.2483899593353,3,versionB_stim.csv,ReadVersion.csv,Read,Read2,CIRCLE,DANCE,Study1,M,68,64,Test,User,-,,Recall,Recall2,1014,,0,-1,-1,0,0,,1
63d16398d05b8126c30c19ea,a6jkz86ruu,"Mediated Recall_Prolific",1,193,2023-02-05T19:38:16+00:00,1.71275806427,3,versionB_stim.csv,ReadVersion.csv,Read,Read2,WEDDING,FINGER,Study1,M,72,76,Test,User,-,,Recall,Recall2,1488,ring,60,1135,1357,0,0,,1
63d16398d05b8126c30c19ea,a6jkz86ruu,"Mediated Recall_Prolific",1,194,2023-02-05T19:38:18+00:00,2.0671319961548,3,versionB_stim.csv,ReadVersion.csv,Read,Read2,SHELL,SHAKE,Study1,U,98,85,Test,User,-,,Recall,Recall2,1842,shock,60,887,1678,0,0,,1
63d16398d05b8126c30c19ea,a6jkz86ruu,"Mediated Recall_Prolific",1,195,2023-02-05T19:38:19+00:00,1.2118239402771,3,versionB_stim.csv,ReadVersion.csv,Read,Read2,SOON,BELT,Study1,U,101,100,Test,User,-,,Recall,Recall2,964,,0,-1,-1,0,0,,1
63d16398d05b8126c30c19ea,a6jkz86ruu,"Mediated Recall_Prolific",1,196,2023-02-05T19:38:21+00:00,2.026792049408,3,versionB_stim.csv,ReadVersion.csv,Read,Read2,MAZE,PHONE,Study1,U,97,87,Test,User,-,,Recall,Recall2,1755,phone,100,1195,1587,1,1,,1
63d16398d05b8126c30c19ea,a6jkz86ruu,"Mediated Recall_Prolific",1,197,2023-02-05T19:38:22+00:00,1.2012670040131,3,versionB_stim.csv,ReadVersion.csv,Read,Read2,ROUGH,SILK,Study1,M,65,67,Test,User,-,,Recall,Recall2,982,,0,-1,-1,0,0,,1
63d16398d05b8126c30c19ea,a6jkz86ruu,"Mediated Recall_Prolific",1,198,2023-02-05T19:38:25+00:00,2.6268529891968,3,versionB_stim.csv,ReadVersion.csv,Read,Read2,BEACH,BOX,Study1,M,62,72,Test,User,-,,Recall,Recall2,2384,box,100,1476,2201,1,1,,1
63d16398d05b8126c30c19ea,a6jkz86ruu,"Mediated Recall_Prolific",1,199,2023-02-05T19:38:27+00:00,1.6702971458435,3,versionB_stim.csv,ReadVersion.csv,Read,Read2,ORCHID,FLOWER,Study1,F,89,83,Test,User,-,,Recall,Recall2,1409,flower,100,927,1290,1,1,,1
63d16398d05b8126c30c19ea,a6jkz86ruu,"Mediated Recall_Prolific",1,200,2023-02-05T19:38:29+00:00,2.6728239059448,3,versionB_stim.csv,ReadVersion.csv,Read,Read2,DAY,DARK,Study1,M,73,105,Test,User,-,,Recall,Recall2,2433,dusk,50,1958,2265,0,0,,1
63d16398d05b8126c30c19ea,a6jkz86ruu,"Mediated Recall_Prolific",1,201,2023-02-05T19:38:31+00:00,1.8302841186523,3,versionB_stim.csv,ReadVersion.csv,Read,Read2,FUZZY,BANG,Study1,U,105,70,Test,User,-,,Recall,Recall2,1596,,0,-1,-1,0,0,,1
63d16398d05b8126c30c19ea,a6jkz86ruu,"Mediated Recall_Prolific",1,202,2023-02-05T19:38:33+00:00,1.8890810012817,3,versionB_stim.csv,ReadVersion.csv,Read,Read2,MULE,DONKEY,Study1,F,85,92,Test,User,-,,Recall,Recall2,1657,donkey,100,963,1417,1,1,,1
63d16398d05b8126c30c19ea,a6jkz86ruu,"Mediated Recall_Prolific",1,203,2023-02-05T19:38:34+00:00,1.356960773468,3,versionB_stim.csv,ReadVersion.csv,Read,Read2,LITTER,TRASH,Study1,F,76,66,Test,User,-,,Recall,Recall2,1135,,0,-1,-1,0,0,,1
63d16398d05b8126c30c19ea,a6jkz86ruu,"Mediated Recall_Prolific",1,204,2023-02-05T19:38:36+00:00,1.5018470287323,3,versionB_stim.csv,ReadVersion.csv,Read,Read2,HYGIENE,CLEAN,Study1,F,83,93,Test,User,-,,Recall,Recall2,1280,clean,100,865,1106,1,1,,1
63d16398d05b8126c30c19ea,a6jkz86ruu,"Mediated Recall_Prolific",1,205,2023-02-05T19:38:38+00:00,2.2099750041962,3,versionB_stim.csv,ReadVersion.csv,Read,Read2,LION,STRIPES,Study1,M,61,79,Test,User,-,,Recall,Recall2,1978,stripes,100,1137,1835,1,1,,1
63d16398d05b8126c30c19ea,a6jkz86ruu,"Mediated Recall_Prolific",1,206,2023-02-05T19:38:40+00:00,1.8825650215149,3,versionB_stim.csv,ReadVersion.csv,Read,Read2,TREE,SYRUP,Study1,M,66,69,Test,User,-,,Recall,Recall2,1635,,0,-1,-1,0,0,,1
63d16398d05b8126c30c19ea,a6jkz86ruu,"Mediated Recall_Prolific",1,207,2023-02-05T19:38:42+00:00,1.6504430770874,3,versionB_stim.csv,ReadVersion.csv,Read,Read2,BIRTHDAY,PIE,Study1,M,64,96,Test,User,-,,Recall,Recall2,1436,pie,100,1113,1312,1,1,,1
63d16398d05b8126c30c19ea,a6jkz86ruu,"Mediated Recall_Prolific",1,208,2023-02-05T19:38:43+00:00,1.875746011734,3,versionB_stim.csv,ReadVersion.csv,Read,Read2,CREDIT,CARD,Study1,F,88,95,Test,User,-,,Recall,Recall2,1657,card,100,853,1217,1,1,,1
63d16398d05b8126c30c19ea,a6jkz86ruu,"Mediated Recall_Prolific",1,209,2023-02-05T19:38:45+00:00,1.1787068843842,3,versionB_stim.csv,ReadVersion.csv,Read,Read2,KEYS,ROD,Study1,U,100,81,Test,User,-,,Recall,Recall2,951,,0,-1,-1,0,0,,1
63d16398d05b8126c30c19ea,a6jkz86ruu,"Mediated Recall_Prolific",1,210,2023-02-05T19:38:46+00:00,1.7504260540009,3,versionB_stim.csv,ReadVersion.csv,Read,Read2,CEILING,CARPET,Study1,M,70,98,Test,User,-,,Recall,Recall2,1546,floor,18.181818181818,1037,1415,0,0,,1
63d16398d05b8126c30c19ea,a6jkz86ruu,"Mediated Recall_Prolific",1,211,2023-02-05T19:38:47+00:00,1.0125811100006,3,versionB_stim.csv,ReadVersion.csv,Read,Read2,,,,,,0,Instruct,User,-,"You have completed this section. Please press Enter.",,Instruct7,785,,,-1,-1,,,,1
63d16398d05b8126c30c19ea,a6jkz86ruu,"Mediated Recall_Prolific",1,212,2023-02-05T19:38:49+00:00,1.2985479831696,3,versionB_stim.csv,ReadVersion.csv,Read,Read2,,,,,,0,Instruct,User,-,"The following screen will ask you a few questions abour your experience today. You must complete these questions to receive credit.",,Instruct8,1062,,,-1,-1,,,,1
