Username,ID,ExperimentName,Session,Trial,Date,TimeDif,"Condition Number","Stimuli File","Order File","Condition Description","Condition Notes",Stimuli*Cue,Stimuli*Answer,Stimuli*Shuffle,"Stimuli*Stimuli Notes",Stimuli*Value,Procedure*Item,"Procedure*Trial Type","Procedure*Max Time","Procedure*Min Time",Procedure*Text,"Procedure*Procedure Notes",Procedure*Shuffle,Response*RT,Response*Response,Response*Accuracy,Response*RTfirst,Response*RTlast,Response*strictAcc,Response*lenientAcc,Response*focus,Response*Focus
6172607a932e0b0c3523854d,w9uqwqr4fa,"Mediated Recall_Prolific",1,1,2023-02-05T22:32:23+00:00,14.417515993118,1,versionA_stim.csv,ReadVersion.csv,Read,Read1,,,,,,0,Instruct,-,5,"In this section, you will be presented with a series of word pairs. Please study each word pair! Your memory will be tested!",Initial_Instruct,Instruct1,13534,,,-1,-1,,,,1
6172607a932e0b0c3523854d,w9uqwqr4fa,"Mediated Recall_Prolific",1,2,2023-02-05T22:32:25+00:00,2.5005550384521,1,versionA_stim.csv,ReadVersion.csv,Read,Read1,,,,,,0,Instruct,User,-,"You will now begin. Press Enter when you are ready to begin.",,Instruct16,1736,,,-1,-1,,,,1
6172607a932e0b0c3523854d,w9uqwqr4fa,"Mediated Recall_Prolific",1,3,2023-02-05T22:32:28+00:00,2.9062521457672,1,versionA_stim.csv,ReadVersion.csv,Read,Read1,PITCHER,CATCHER,BUFFER1,Buffer,2,6,Study,User,-,,Study/JOL,BUFFER,2135,,,-1,-1,,,,1
6172607a932e0b0c3523854d,w9uqwqr4fa,"Mediated Recall_Prolific",1,4,2023-02-05T22:32:30+00:00,1.8674919605255,1,versionA_stim.csv,ReadVersion.csv,Read,Read1,SCARE,FRIGHT,BUFFER1,Buffer,4,2,Study,User,-,,Study/JOL,BUFFER,1109,,,-1,-1,,,,1
6172607a932e0b0c3523854d,w9uqwqr4fa,"Mediated Recall_Prolific",1,5,2023-02-05T22:32:32+00:00,2.2353420257568,1,versionA_stim.csv,ReadVersion.csv,Read,Read1,SPACE,JAM,BUFFER1,Buffer,5,3,Study,User,-,,Study/JOL,BUFFER,1136,,,-1,-1,,,,1
6172607a932e0b0c3523854d,w9uqwqr4fa,"Mediated Recall_Prolific",1,6,2023-02-05T22:32:34+00:00,2.1861929893494,1,versionA_stim.csv,ReadVersion.csv,Read,Read1,PEANUT,BUTTER,BUFFER1,Buffer,3,5,Study,User,-,,Study/JOL,BUFFER,1232,,,-1,-1,,,,1
6172607a932e0b0c3523854d,w9uqwqr4fa,"Mediated Recall_Prolific",1,7,2023-02-05T22:32:36+00:00,1.9000778198242,1,versionA_stim.csv,ReadVersion.csv,Read,Read1,TREES,GREEN,BUFFER1,Buffer,1,4,Study,User,-,,Study/JOL,BUFFER,1009,,,-1,-1,,,,1
6172607a932e0b0c3523854d,w9uqwqr4fa,"Mediated Recall_Prolific",1,8,2023-02-05T22:32:38+00:00,1.8286261558533,1,versionA_stim.csv,ReadVersion.csv,Read,Read1,DAY,DARK,Study1,M,18,39,Study,User,-,,Study/JOL,"Study Phase",960,,,-1,-1,,,,1
6172607a932e0b0c3523854d,w9uqwqr4fa,"Mediated Recall_Prolific",1,9,2023-02-05T22:32:40+00:00,2.3061490058899,1,versionA_stim.csv,ReadVersion.csv,Read,Read1,LITTER,TRASH,Study1,F,21,50,Study,User,-,,Study/JOL,"Study Phase",1080,,,-1,-1,,,,1
6172607a932e0b0c3523854d,w9uqwqr4fa,"Mediated Recall_Prolific",1,10,2023-02-05T22:32:43+00:00,2.7396059036255,1,versionA_stim.csv,ReadVersion.csv,Read,Read1,WORD,SENTENCE,Study1,F,27,11,Study,User,-,,Study/JOL,"Study Phase",1823,,,-1,-1,,,,1
6172607a932e0b0c3523854d,w9uqwqr4fa,"Mediated Recall_Prolific",1,11,2023-02-05T22:32:45+00:00,1.8746790885925,1,versionA_stim.csv,ReadVersion.csv,Read,Read1,CRACKLE,ELECTION,Study1,U,39,10,Study,User,-,,Study/JOL,"Study Phase",871,,,-1,-1,,,,1
6172607a932e0b0c3523854d,w9uqwqr4fa,"Mediated Recall_Prolific",1,12,2023-02-05T22:32:47+00:00,1.9209458827972,1,versionA_stim.csv,ReadVersion.csv,Read,Read1,LION,STRIPES,Study1,M,6,7,Study,User,-,,Study/JOL,"Study Phase",1128,,,-1,-1,,,,1
6172607a932e0b0c3523854d,w9uqwqr4fa,"Mediated Recall_Prolific",1,13,2023-02-05T22:32:49+00:00,2.1425089836121,1,versionA_stim.csv,ReadVersion.csv,Read,Read1,GIVE,STEAK,Study1,U,38,38,Study,User,-,,Study/JOL,"Study Phase",1346,,,-1,-1,,,,1
6172607a932e0b0c3523854d,w9uqwqr4fa,"Mediated Recall_Prolific",1,14,2023-02-05T22:32:51+00:00,1.7733631134033,1,versionA_stim.csv,ReadVersion.csv,Read,Read1,CAKE,HAND,Study1,U,49,8,Study,User,-,,Study/JOL,"Study Phase",842,,,-1,-1,,,,1
6172607a932e0b0c3523854d,w9uqwqr4fa,"Mediated Recall_Prolific",1,15,2023-02-05T22:32:53+00:00,2.3832020759583,1,versionA_stim.csv,ReadVersion.csv,Read,Read1,MEAT,KEYS,Study1,U,41,36,Study,User,-,,Study/JOL,"Study Phase",1478,,,-1,-1,,,,1
6172607a932e0b0c3523854d,w9uqwqr4fa,"Mediated Recall_Prolific",1,16,2023-02-05T22:32:55+00:00,1.8305578231812,1,versionA_stim.csv,ReadVersion.csv,Read,Read1,SIP,DRINK,Study1,F,32,29,Study,User,-,,Study/JOL,"Study Phase",910,,,-1,-1,,,,1
6172607a932e0b0c3523854d,w9uqwqr4fa,"Mediated Recall_Prolific",1,17,2023-02-05T22:32:57+00:00,1.7974710464478,1,versionA_stim.csv,ReadVersion.csv,Read,Read1,AFFECTION,LOVE,Study1,F,31,43,Study,User,-,,Study/JOL,"Study Phase",875,,,-1,-1,,,,1
6172607a932e0b0c3523854d,w9uqwqr4fa,"Mediated Recall_Prolific",1,18,2023-02-05T22:32:59+00:00,1.9843900203705,1,versionA_stim.csv,ReadVersion.csv,Read,Read1,MULE,DONKEY,Study1,F,30,25,Study,User,-,,Study/JOL,"Study Phase",893,,,-1,-1,,,,1
6172607a932e0b0c3523854d,w9uqwqr4fa,"Mediated Recall_Prolific",1,19,2023-02-05T22:33:01+00:00,1.9109749794006,1,versionA_stim.csv,ReadVersion.csv,Read,Read1,TREE,SYRUP,Study1,M,11,22,Study,User,-,,Study/JOL,"Study Phase",1086,,,-1,-1,,,,1
6172607a932e0b0c3523854d,w9uqwqr4fa,"Mediated Recall_Prolific",1,20,2023-02-05T22:33:03+00:00,1.8248109817505,1,versionA_stim.csv,ReadVersion.csv,Read,Read1,VEHICLE,CHARM,Study1,U,40,49,Study,User,-,,Study/JOL,"Study Phase",797,,,-1,-1,,,,1
6172607a932e0b0c3523854d,w9uqwqr4fa,"Mediated Recall_Prolific",1,21,2023-02-05T22:33:05+00:00,2.0718309879303,1,versionA_stim.csv,ReadVersion.csv,Read,Read1,NAP,SLEEP,Study1,F,29,37,Study,User,-,,Study/JOL,"Study Phase",876,,,-1,-1,,,,1
6172607a932e0b0c3523854d,w9uqwqr4fa,"Mediated Recall_Prolific",1,22,2023-02-05T22:33:07+00:00,1.8747341632843,1,versionA_stim.csv,ReadVersion.csv,Read,Read1,BIRTHDAY,PIE,Study1,M,9,20,Study,User,-,,Study/JOL,"Study Phase",554,,,-1,-1,,,,1
6172607a932e0b0c3523854d,w9uqwqr4fa,"Mediated Recall_Prolific",1,23,2023-02-05T22:33:08+00:00,1.8451538085938,1,versionA_stim.csv,ReadVersion.csv,Read,Read1,HORSE,WHEEL,Study1,M,14,31,Study,User,-,,Study/JOL,"Study Phase",945,,,-1,-1,,,,1
6172607a932e0b0c3523854d,w9uqwqr4fa,"Mediated Recall_Prolific",1,24,2023-02-05T22:33:10+00:00,2.0945379734039,1,versionA_stim.csv,ReadVersion.csv,Read,Read1,MIRROR,MAROON,Study1,U,36,12,Study,User,-,,Study/JOL,"Study Phase",868,,,-1,-1,,,,1
6172607a932e0b0c3523854d,w9uqwqr4fa,"Mediated Recall_Prolific",1,25,2023-02-05T22:33:12+00:00,1.6030521392822,1,versionA_stim.csv,ReadVersion.csv,Read,Read1,HYGIENE,CLEAN,Study1,F,28,19,Study,User,-,,Study/JOL,"Study Phase",757,,,-1,-1,,,,1
6172607a932e0b0c3523854d,w9uqwqr4fa,"Mediated Recall_Prolific",1,26,2023-02-05T22:33:14+00:00,2.2233328819275,1,versionA_stim.csv,ReadVersion.csv,Read,Read1,CRY,BOTTLE,Study1,M,16,45,Study,User,-,,Study/JOL,"Study Phase",770,,,-1,-1,,,,1
6172607a932e0b0c3523854d,w9uqwqr4fa,"Mediated Recall_Prolific",1,27,2023-02-05T22:33:16+00:00,1.6122310161591,1,versionA_stim.csv,ReadVersion.csv,Read,Read1,WEDDING,FINGER,Study1,M,17,48,Study,User,-,,Study/JOL,"Study Phase",751,,,-1,-1,,,,1
6172607a932e0b0c3523854d,w9uqwqr4fa,"Mediated Recall_Prolific",1,28,2023-02-05T22:33:19+00:00,2.684445142746,1,versionA_stim.csv,ReadVersion.csv,Read,Read1,SWAN,BIRD,Study1,F,26,17,Study,User,-,,Study/JOL,"Study Phase",1299,,,-1,-1,,,,1
6172607a932e0b0c3523854d,w9uqwqr4fa,"Mediated Recall_Prolific",1,29,2023-02-05T22:33:21+00:00,2.1165080070496,1,versionA_stim.csv,ReadVersion.csv,Read,Read1,SCALP,HEAD,Study1,F,23,28,Study,User,-,,Study/JOL,"Study Phase",1223,,,-1,-1,,,,1
6172607a932e0b0c3523854d,w9uqwqr4fa,"Mediated Recall_Prolific",1,30,2023-02-05T22:33:23+00:00,2.4375438690186,1,versionA_stim.csv,ReadVersion.csv,Read,Read1,CIRCLE,DANCE,Study1,M,13,41,Study,User,-,,Study/JOL,"Study Phase",1381,,,-1,-1,,,,1
6172607a932e0b0c3523854d,w9uqwqr4fa,"Mediated Recall_Prolific",1,31,2023-02-05T22:33:26+00:00,2.4682080745697,1,versionA_stim.csv,ReadVersion.csv,Read,Read1,CEILING,CARPET,Study1,M,15,23,Study,User,-,,Study/JOL,"Study Phase",1697,,,-1,-1,,,,1
6172607a932e0b0c3523854d,w9uqwqr4fa,"Mediated Recall_Prolific",1,32,2023-02-05T22:33:31+00:00,5.3336749076843,1,versionA_stim.csv,ReadVersion.csv,Read,Read1,TOOTH,HAIR,Study1,M,19,35,Study,User,-,,Study/JOL,"Study Phase",4548,,,-1,-1,,,,1
6172607a932e0b0c3523854d,w9uqwqr4fa,"Mediated Recall_Prolific",1,33,2023-02-05T22:33:33+00:00,1.9661450386047,1,versionA_stim.csv,ReadVersion.csv,Read,Read1,CREDIT,CARD,Study1,F,33,13,Study,User,-,,Study/JOL,"Study Phase",850,,,-1,-1,,,,1
6172607a932e0b0c3523854d,w9uqwqr4fa,"Mediated Recall_Prolific",1,34,2023-02-05T22:33:35+00:00,2.2671489715576,1,versionA_stim.csv,ReadVersion.csv,Read,Read1,SHELL,SHAKE,Study1,U,43,44,Study,User,-,,Study/JOL,"Study Phase",662,,,-1,-1,,,,1
6172607a932e0b0c3523854d,w9uqwqr4fa,"Mediated Recall_Prolific",1,35,2023-02-05T22:33:37+00:00,1.7694730758667,1,versionA_stim.csv,ReadVersion.csv,Read,Read1,TUNA,FISH,Study1,F,35,24,Study,User,-,,Study/JOL,"Study Phase",864,,,-1,-1,,,,1
6172607a932e0b0c3523854d,w9uqwqr4fa,"Mediated Recall_Prolific",1,36,2023-02-05T22:33:39+00:00,1.7247278690338,1,versionA_stim.csv,ReadVersion.csv,Read,Read1,FUZZY,BANG,Study1,U,50,26,Study,User,-,,Study/JOL,"Study Phase",881,,,-1,-1,,,,1
6172607a932e0b0c3523854d,w9uqwqr4fa,"Mediated Recall_Prolific",1,37,2023-02-05T22:33:40+00:00,1.7896671295166,1,versionA_stim.csv,ReadVersion.csv,Read,Read1,SOON,BELT,Study1,U,46,21,Study,User,-,,Study/JOL,"Study Phase",727,,,-1,-1,,,,1
6172607a932e0b0c3523854d,w9uqwqr4fa,"Mediated Recall_Prolific",1,38,2023-02-05T22:33:43+00:00,2.7628090381622,1,versionA_stim.csv,ReadVersion.csv,Read,Read1,TEMPERATURE,MORNING,Study1,U,48,30,Study,User,-,,Study/JOL,"Study Phase",1087,,,-1,-1,,,,1
6172607a932e0b0c3523854d,w9uqwqr4fa,"Mediated Recall_Prolific",1,39,2023-02-05T22:33:45+00:00,1.8586208820343,1,versionA_stim.csv,ReadVersion.csv,Read,Read1,BEACH,BOX,Study1,M,7,40,Study,User,-,,Study/JOL,"Study Phase",889,,,-1,-1,,,,1
6172607a932e0b0c3523854d,w9uqwqr4fa,"Mediated Recall_Prolific",1,40,2023-02-05T22:33:47+00:00,1.9538741111755,1,versionA_stim.csv,ReadVersion.csv,Read,Read1,WAR,QUIET,Study1,M,8,47,Study,User,-,,Study/JOL,"Study Phase",893,,,-1,-1,,,,1
6172607a932e0b0c3523854d,w9uqwqr4fa,"Mediated Recall_Prolific",1,41,2023-02-05T22:33:49+00:00,1.9309680461884,1,versionA_stim.csv,ReadVersion.csv,Read,Read1,KEYS,ROD,Study1,U,45,14,Study,User,-,,Study/JOL,"Study Phase",588,,,-1,-1,,,,1
6172607a932e0b0c3523854d,w9uqwqr4fa,"Mediated Recall_Prolific",1,42,2023-02-05T22:33:50+00:00,1.4894459247589,1,versionA_stim.csv,ReadVersion.csv,Read,Read1,SIGN,TICK,Study1,U,47,9,Study,User,-,,Study/JOL,"Study Phase",696,,,-1,-1,,,,1
6172607a932e0b0c3523854d,w9uqwqr4fa,"Mediated Recall_Prolific",1,43,2023-02-05T22:33:52+00:00,1.8944790363312,1,versionA_stim.csv,ReadVersion.csv,Read,Read1,LISTEN,FICTION,Study1,U,44,51,Study,User,-,,Study/JOL,"Study Phase",1087,,,-1,-1,,,,1
6172607a932e0b0c3523854d,w9uqwqr4fa,"Mediated Recall_Prolific",1,44,2023-02-05T22:33:54+00:00,1.9785389900208,1,versionA_stim.csv,ReadVersion.csv,Read,Read1,ROUGH,SILK,Study1,M,10,27,Study,User,-,,Study/JOL,"Study Phase",1015,,,-1,-1,,,,1
6172607a932e0b0c3523854d,w9uqwqr4fa,"Mediated Recall_Prolific",1,45,2023-02-05T22:33:56+00:00,1.7888288497925,1,versionA_stim.csv,ReadVersion.csv,Read,Read1,ROOT,PLANT,Study1,F,25,18,Study,User,-,,Study/JOL,"Study Phase",895,,,-1,-1,,,,1
6172607a932e0b0c3523854d,w9uqwqr4fa,"Mediated Recall_Prolific",1,46,2023-02-05T22:33:58+00:00,1.8194231987,1,versionA_stim.csv,ReadVersion.csv,Read,Read1,MAZE,PHONE,Study1,U,42,32,Study,User,-,,Study/JOL,"Study Phase",550,,,-1,-1,,,,1
6172607a932e0b0c3523854d,w9uqwqr4fa,"Mediated Recall_Prolific",1,47,2023-02-05T22:34:00+00:00,1.8635230064392,1,versionA_stim.csv,ReadVersion.csv,Read,Read1,WAGE,MONEY,Study1,F,22,46,Study,User,-,,Study/JOL,"Study Phase",998,,,-1,-1,,,,1
6172607a932e0b0c3523854d,w9uqwqr4fa,"Mediated Recall_Prolific",1,48,2023-02-05T22:34:02+00:00,1.9137279987335,1,versionA_stim.csv,ReadVersion.csv,Read,Read1,MULE,DONKEY,Study1,F,24,42,Study,User,-,,Study/JOL,"Study Phase",1071,,,-1,-1,,,,1
6172607a932e0b0c3523854d,w9uqwqr4fa,"Mediated Recall_Prolific",1,49,2023-02-05T22:34:04+00:00,1.9508719444275,1,versionA_stim.csv,ReadVersion.csv,Read,Read1,BAT,BOUNCE,Study1,M,12,34,Study,User,-,,Study/JOL,"Study Phase",1059,,,-1,-1,,,,1
6172607a932e0b0c3523854d,w9uqwqr4fa,"Mediated Recall_Prolific",1,50,2023-02-05T22:34:06+00:00,2.1269409656525,1,versionA_stim.csv,ReadVersion.csv,Read,Read1,HARD,COTTON,Study1,M,20,16,Study,User,-,,Study/JOL,"Study Phase",908,,,-1,-1,,,,1
6172607a932e0b0c3523854d,w9uqwqr4fa,"Mediated Recall_Prolific",1,51,2023-02-05T22:34:11+00:00,4.8161668777466,1,versionA_stim.csv,ReadVersion.csv,Read,Read1,ORCHID,FLOWER,Study1,F,34,33,Study,User,-,,Study/JOL,"Study Phase",4062,,,-1,-1,,,,1
6172607a932e0b0c3523854d,w9uqwqr4fa,"Mediated Recall_Prolific",1,52,2023-02-05T22:34:13+00:00,2.0616672039032,1,versionA_stim.csv,ReadVersion.csv,Read,Read1,STRETCH,CLOTH,Study1,U,37,15,Study,User,-,,Study/JOL,"Study Phase",1139,,,-1,-1,,,,1
6172607a932e0b0c3523854d,w9uqwqr4fa,"Mediated Recall_Prolific",1,53,2023-02-05T22:34:15+00:00,2.1954169273376,1,versionA_stim.csv,ReadVersion.csv,Read,Read1,SHRIMP,FISH,BUFFER4,Buffer,108,110,Study,User,-,,Study/JOL,BUFFER2,919,,,-1,-1,,,,1
6172607a932e0b0c3523854d,w9uqwqr4fa,"Mediated Recall_Prolific",1,54,2023-02-05T22:34:17+00:00,2.329393863678,1,versionA_stim.csv,ReadVersion.csv,Read,Read1,OCTOBER,SPOOKY,BUFFER3,Buffer,60,60,Study,User,-,,Study/JOL,BUFFER2,1483,,,-1,-1,,,,1
6172607a932e0b0c3523854d,w9uqwqr4fa,"Mediated Recall_Prolific",1,55,2023-02-05T22:34:20+00:00,2.4649510383606,1,versionA_stim.csv,ReadVersion.csv,Read,Read1,DAYS,WEAKS,BUFFER3,Buffer,56,59,Study,User,-,,Study/JOL,BUFFER2,1662,,,-1,-1,,,,1
6172607a932e0b0c3523854d,w9uqwqr4fa,"Mediated Recall_Prolific",1,56,2023-02-05T22:34:22+00:00,2.481682062149,1,versionA_stim.csv,ReadVersion.csv,Read,Read1,CARROT,POTATO,BUFFER4,Buffer,106,107,Study,User,-,,Study/JOL,BUFFER2,1687,,,-1,-1,,,,1
6172607a932e0b0c3523854d,w9uqwqr4fa,"Mediated Recall_Prolific",1,57,2023-02-05T22:34:24+00:00,1.9902329444885,1,versionA_stim.csv,ReadVersion.csv,Read,Read1,SHERRIF,POLICE,BUFFER2,Buffer,52,53,Study,User,-,,Study/JOL,BUFFER2,907,,,-1,-1,,,,1
6172607a932e0b0c3523854d,w9uqwqr4fa,"Mediated Recall_Prolific",1,58,2023-02-05T22:34:33+00:00,8.7828481197357,1,versionA_stim.csv,ReadVersion.csv,Read,Read1,,,,,,0,Instruct,User,-,"You have completed this section. Please press Enter.",Filler_Instruction,Instruct2,7712,,,-1,-1,,,,1
6172607a932e0b0c3523854d,w9uqwqr4fa,"Mediated Recall_Prolific",1,59,2023-02-05T22:36:34+00:00,121.03741884232,1,versionA_stim.csv,ReadVersion.csv,Read,Read1,,,,,,0,FreeRecall,120,120,"Please list the 50 US states in alphabetical order. The task will automatically advance to the next screen after two minutes.",,Filler1,120053,"Alaska Arizona California Idaho Kansas Kentucky Nebraska North Dakota South Dakota Tennesee Utah Vermont Washington West Virgina Wyoming ",0,5334,115744,0,0,,0.992
6172607a932e0b0c3523854d,w9uqwqr4fa,"Mediated Recall_Prolific",1,60,2023-02-05T22:36:47+00:00,13.315818071365,1,versionA_stim.csv,ReadVersion.csv,Read,Read1,,,,,,0,Instruct,-,10,"You will now be presented with the first word from each of the previously studied item pairs. Please type the missing word. If you do not know the word, you may guess or press Enter to skip forward to the next pair.",,Instruct3,12106,,,-1,-1,,,,1
6172607a932e0b0c3523854d,w9uqwqr4fa,"Mediated Recall_Prolific",1,61,2023-02-05T22:36:54+00:00,6.6127951145172,1,versionA_stim.csv,ReadVersion.csv,Read,Read1,GIVE,STEAK,Study1,U,38,38,Test,User,-,,Recall,Recall1,5847,thanks,54.545454545455,4823,5367,0,0,,1
6172607a932e0b0c3523854d,w9uqwqr4fa,"Mediated Recall_Prolific",1,62,2023-02-05T22:36:58+00:00,3.6706609725952,1,versionA_stim.csv,ReadVersion.csv,Read,Read1,WAR,QUIET,Study1,M,8,47,Test,User,-,,Recall,Recall1,2720,crime,40,1910,2294,0,0,,1
6172607a932e0b0c3523854d,w9uqwqr4fa,"Mediated Recall_Prolific",1,63,2023-02-05T22:37:04+00:00,6.4356639385223,1,versionA_stim.csv,ReadVersion.csv,Read,Read1,MEAT,KEYS,Study1,U,41,36,Test,User,-,,Recall,Recall1,5625,steak,22.222222222222,4671,5101,0,0,,1
6172607a932e0b0c3523854d,w9uqwqr4fa,"Mediated Recall_Prolific",1,64,2023-02-05T22:37:15+00:00,11.365240097046,1,versionA_stim.csv,ReadVersion.csv,Read,Read1,TEMPERATURE,MORNING,Study1,U,48,30,Test,User,-,,Recall,Recall1,10366,heat,0,9397,9808,0,0,,1
6172607a932e0b0c3523854d,w9uqwqr4fa,"Mediated Recall_Prolific",1,65,2023-02-05T22:37:20+00:00,4.312707901001,1,versionA_stim.csv,ReadVersion.csv,Read,Read1,SIGN,TICK,Study1,U,47,9,Test,User,-,,Recall,Recall1,3536,language,0,2430,3179,0,0,,1
6172607a932e0b0c3523854d,w9uqwqr4fa,"Mediated Recall_Prolific",1,66,2023-02-05T22:37:25+00:00,5.288449048996,1,versionA_stim.csv,ReadVersion.csv,Read,Read1,SWAN,BIRD,Study1,F,26,17,Test,User,-,,Recall,Recall1,4427,duck,25,2042,3455,0,0,,1
6172607a932e0b0c3523854d,w9uqwqr4fa,"Mediated Recall_Prolific",1,67,2023-02-05T22:37:29+00:00,3.9549429416656,1,versionA_stim.csv,ReadVersion.csv,Read,Read1,BIRTHDAY,PIE,Study1,M,9,20,Test,User,-,,Recall,Recall1,2975,pie,100,2163,2444,1,1,,1
6172607a932e0b0c3523854d,w9uqwqr4fa,"Mediated Recall_Prolific",1,68,2023-02-05T22:37:32+00:00,3.4254059791565,1,versionA_stim.csv,ReadVersion.csv,Read,Read1,ORCHID,FLOWER,Study1,F,34,33,Test,User,-,,Recall,Recall1,2673,flower,100,1873,2313,1,1,,1
6172607a932e0b0c3523854d,w9uqwqr4fa,"Mediated Recall_Prolific",1,69,2023-02-05T22:37:37+00:00,4.5139210224152,1,versionA_stim.csv,ReadVersion.csv,Read,Read1,LITTER,TRASH,Study1,F,21,50,Test,User,-,,Recall,Recall1,3553,trash,100,1866,3066,1,1,,1
6172607a932e0b0c3523854d,w9uqwqr4fa,"Mediated Recall_Prolific",1,70,2023-02-05T22:37:42+00:00,4.7925579547882,1,versionA_stim.csv,ReadVersion.csv,Read,Read1,BEACH,BOX,Study1,M,7,40,Test,User,-,,Recall,Recall1,3807,lake,0,3100,3378,0,0,,1
6172607a932e0b0c3523854d,w9uqwqr4fa,"Mediated Recall_Prolific",1,71,2023-02-05T22:37:47+00:00,5.0255110263824,1,versionA_stim.csv,ReadVersion.csv,Read,Read1,CIRCLE,DANCE,Study1,M,13,41,Test,User,-,,Recall,Recall1,4199,dance,100,3361,3875,1,1,,1
6172607a932e0b0c3523854d,w9uqwqr4fa,"Mediated Recall_Prolific",1,72,2023-02-05T22:37:51+00:00,4.2376320362091,1,versionA_stim.csv,ReadVersion.csv,Read,Read1,CRY,BOTTLE,Study1,M,16,45,Test,User,-,,Recall,Recall1,3283,tears,36.363636363636,2570,2912,0,0,,1
6172607a932e0b0c3523854d,w9uqwqr4fa,"Mediated Recall_Prolific",1,73,2023-02-05T22:37:55+00:00,4.1438980102539,1,versionA_stim.csv,ReadVersion.csv,Read,Read1,MULE,DONKEY,Study1,F,30,25,Test,User,-,,Recall,Recall1,3309,donkey,100,2134,2746,1,1,,1
6172607a932e0b0c3523854d,w9uqwqr4fa,"Mediated Recall_Prolific",1,74,2023-02-05T22:37:59+00:00,3.8531620502472,1,versionA_stim.csv,ReadVersion.csv,Read,Read1,BAT,BOUNCE,Study1,M,12,34,Test,User,-,,Recall,Recall1,2883,black,36.363636363636,2076,2425,0,0,,1
6172607a932e0b0c3523854d,w9uqwqr4fa,"Mediated Recall_Prolific",1,75,2023-02-05T22:38:04+00:00,5.3938028812408,1,versionA_stim.csv,ReadVersion.csv,Read,Read1,TUNA,FISH,Study1,F,35,24,Test,User,-,,Recall,Recall1,4611,salmon,20,3516,4128,0,0,,1
6172607a932e0b0c3523854d,w9uqwqr4fa,"Mediated Recall_Prolific",1,76,2023-02-05T22:38:07+00:00,2.8257989883423,1,versionA_stim.csv,ReadVersion.csv,Read,Read1,CREDIT,CARD,Study1,F,33,13,Test,User,-,,Recall,Recall1,1998,card,100,1362,1681,1,1,,1
6172607a932e0b0c3523854d,w9uqwqr4fa,"Mediated Recall_Prolific",1,77,2023-02-05T22:38:17+00:00,9.80224609375,1,versionA_stim.csv,ReadVersion.csv,Read,Read1,CRACKLE,ELECTION,Study1,U,39,10,Test,User,-,,Recall,Recall1,8828,christmas,23.529411764706,6812,7723,0,0,,1
6172607a932e0b0c3523854d,w9uqwqr4fa,"Mediated Recall_Prolific",1,78,2023-02-05T22:38:22+00:00,4.7380628585815,1,versionA_stim.csv,ReadVersion.csv,Read,Read1,DAY,DARK,Study1,M,18,39,Test,User,-,,Recall,Recall1,3740,night,0,2674,3066,0,0,,1
6172607a932e0b0c3523854d,w9uqwqr4fa,"Mediated Recall_Prolific",1,79,2023-02-05T22:38:42+00:00,20.709366083145,1,versionA_stim.csv,ReadVersion.csv,Read,Read1,STRETCH,CLOTH,Study1,U,37,15,Test,User,-,,Recall,Recall1,19755,yoga,22.222222222222,18949,19329,0,0,,1
6172607a932e0b0c3523854d,w9uqwqr4fa,"Mediated Recall_Prolific",1,80,2023-02-05T22:38:50+00:00,7.8998920917511,1,versionA_stim.csv,ReadVersion.csv,Read,Read1,CAKE,HAND,Study1,U,49,8,Test,User,-,,Recall,Recall1,6907,pie,0,4874,6403,0,0,,1
6172607a932e0b0c3523854d,w9uqwqr4fa,"Mediated Recall_Prolific",1,81,2023-02-05T22:39:03+00:00,13.156831026077,1,versionA_stim.csv,ReadVersion.csv,Read,Read1,HORSE,WHEEL,Study1,M,14,31,Test,User,-,,Recall,Recall1,12197,farm,0,10505,10849,0,0,,1
6172607a932e0b0c3523854d,w9uqwqr4fa,"Mediated Recall_Prolific",1,82,2023-02-05T22:39:07+00:00,3.7024948596954,1,versionA_stim.csv,ReadVersion.csv,Read,Read1,MAZE,PHONE,Study1,U,42,32,Test,User,-,,Recall,Recall1,2917,corn,44.444444444444,2045,2417,0,0,,1
6172607a932e0b0c3523854d,w9uqwqr4fa,"Mediated Recall_Prolific",1,83,2023-02-05T22:39:12+00:00,5.2836511135101,1,versionA_stim.csv,ReadVersion.csv,Read,Read1,ROOT,PLANT,Study1,F,25,18,Test,User,-,,Recall,Recall1,3866,weed,0,2970,3439,0,0,,1
6172607a932e0b0c3523854d,w9uqwqr4fa,"Mediated Recall_Prolific",1,84,2023-02-05T22:39:16+00:00,3.6990368366241,1,versionA_stim.csv,ReadVersion.csv,Read,Read1,KEYS,ROD,Study1,U,45,14,Test,User,-,,Recall,Recall1,2430,ring,28.571428571429,1740,1999,0,0,,1
6172607a932e0b0c3523854d,w9uqwqr4fa,"Mediated Recall_Prolific",1,85,2023-02-05T22:39:20+00:00,3.6650609970093,1,versionA_stim.csv,ReadVersion.csv,Read,Read1,AFFECTION,LOVE,Study1,F,31,43,Test,User,-,,Recall,Recall1,2896,love,100,2251,2535,1,1,,1
6172607a932e0b0c3523854d,w9uqwqr4fa,"Mediated Recall_Prolific",1,86,2023-02-05T22:39:23+00:00,3.3260281085968,1,versionA_stim.csv,ReadVersion.csv,Read,Read1,SCALP,HEAD,Study1,F,23,28,Test,User,-,,Recall,Recall1,2331,hair,50,1677,1940,0,0,,1
6172607a932e0b0c3523854d,w9uqwqr4fa,"Mediated Recall_Prolific",1,87,2023-02-05T22:39:26+00:00,3.0355470180511,1,versionA_stim.csv,ReadVersion.csv,Read,Read1,VEHICLE,CHARM,Study1,U,40,49,Test,User,-,,Recall,Recall1,2262,car,75,1733,1905,0,1,,1
6172607a932e0b0c3523854d,w9uqwqr4fa,"Mediated Recall_Prolific",1,88,2023-02-05T22:39:32+00:00,5.4290270805359,1,versionA_stim.csv,ReadVersion.csv,Read,Read1,WORD,SENTENCE,Study1,F,27,11,Test,User,-,,Recall,Recall1,4508,sentence,100,3092,4145,1,1,,1
6172607a932e0b0c3523854d,w9uqwqr4fa,"Mediated Recall_Prolific",1,89,2023-02-05T22:39:35+00:00,3.8325259685516,1,versionA_stim.csv,ReadVersion.csv,Read,Read1,HYGIENE,CLEAN,Study1,F,28,19,Test,User,-,,Recall,Recall1,3026,shower,18.181818181818,2252,2674,0,0,,1
6172607a932e0b0c3523854d,w9uqwqr4fa,"Mediated Recall_Prolific",1,90,2023-02-05T22:39:39+00:00,3.6391968727112,1,versionA_stim.csv,ReadVersion.csv,Read,Read1,CEILING,CARPET,Study1,M,15,23,Test,User,-,,Recall,Recall1,2834,roof,20,2113,2388,0,0,,1
6172607a932e0b0c3523854d,w9uqwqr4fa,"Mediated Recall_Prolific",1,91,2023-02-05T22:39:44+00:00,5.3848481178284,1,versionA_stim.csv,ReadVersion.csv,Read,Read1,TREE,SYRUP,Study1,M,11,22,Test,User,-,,Recall,Recall1,4376,leaves,18.181818181818,2924,3902,0,0,,1
6172607a932e0b0c3523854d,w9uqwqr4fa,"Mediated Recall_Prolific",1,92,2023-02-05T22:39:56+00:00,11.138407945633,1,versionA_stim.csv,ReadVersion.csv,Read,Read1,SIP,DRINK,Study1,F,32,29,Test,User,-,,Recall,Recall1,9980,drink,100,1868,8668,1,1,,1
6172607a932e0b0c3523854d,w9uqwqr4fa,"Mediated Recall_Prolific",1,93,2023-02-05T22:40:06+00:00,10.538001060486,1,versionA_stim.csv,ReadVersion.csv,Read,Read1,MIRROR,MAROON,Study1,U,36,12,Test,User,-,,Recall,Recall1,9553,self,0,8421,8877,0,0,,1
6172607a932e0b0c3523854d,w9uqwqr4fa,"Mediated Recall_Prolific",1,94,2023-02-05T22:40:10+00:00,3.9000179767609,1,versionA_stim.csv,ReadVersion.csv,Read,Read1,NAP,SLEEP,Study1,F,29,37,Test,User,-,,Recall,Recall1,3073,sleep,100,1750,2331,1,1,,1
6172607a932e0b0c3523854d,w9uqwqr4fa,"Mediated Recall_Prolific",1,95,2023-02-05T22:40:13+00:00,2.9922518730164,1,versionA_stim.csv,ReadVersion.csv,Read,Read1,LISTEN,FICTION,Study1,U,44,51,Test,User,-,,Recall,Recall1,2142,hear,0,1620,1812,0,0,,1
6172607a932e0b0c3523854d,w9uqwqr4fa,"Mediated Recall_Prolific",1,96,2023-02-05T22:40:17+00:00,4.1178350448608,1,versionA_stim.csv,ReadVersion.csv,Read,Read1,SOON,BELT,Study1,U,46,21,Test,User,-,,Recall,Recall1,3137,time,25,2115,2385,0,0,,1
6172607a932e0b0c3523854d,w9uqwqr4fa,"Mediated Recall_Prolific",1,97,2023-02-05T22:40:23+00:00,6.1404480934143,1,versionA_stim.csv,ReadVersion.csv,Read,Read1,SHELL,SHAKE,Study1,U,43,44,Test,User,-,,Recall,Recall1,5335,sea,50,4490,4733,0,0,,1
6172607a932e0b0c3523854d,w9uqwqr4fa,"Mediated Recall_Prolific",1,98,2023-02-05T22:40:28+00:00,4.7197768688202,1,versionA_stim.csv,ReadVersion.csv,Read,Read1,WEDDING,FINGER,Study1,M,17,48,Test,User,-,,Recall,Recall1,3706,ring,60,2255,3229,0,0,,1
6172607a932e0b0c3523854d,w9uqwqr4fa,"Mediated Recall_Prolific",1,99,2023-02-05T22:40:33+00:00,5.538675069809,1,versionA_stim.csv,ReadVersion.csv,Read,Read1,MULE,DONKEY,Study1,F,24,42,Test,User,-,,Recall,Recall1,4727,donkey,100,2270,4137,1,1,,1
6172607a932e0b0c3523854d,w9uqwqr4fa,"Mediated Recall_Prolific",1,100,2023-02-05T22:40:41+00:00,7.9718930721283,1,versionA_stim.csv,ReadVersion.csv,Read,Read1,ROUGH,SILK,Study1,M,10,27,Test,User,-,,Recall,Recall1,6989,break,22.222222222222,5103,6432,0,0,,1
6172607a932e0b0c3523854d,w9uqwqr4fa,"Mediated Recall_Prolific",1,101,2023-02-05T22:40:47+00:00,5.5375158786774,1,versionA_stim.csv,ReadVersion.csv,Read,Read1,TOOTH,HAIR,Study1,M,19,35,Test,User,-,,Recall,Recall1,4562,mouth,22.222222222222,3091,3772,0,0,,1
6172607a932e0b0c3523854d,w9uqwqr4fa,"Mediated Recall_Prolific",1,102,2023-02-05T22:41:05+00:00,17.658878087997,1,versionA_stim.csv,ReadVersion.csv,Read,Read1,LION,STRIPES,Study1,M,6,7,Test,User,-,,Recall,Recall1,16458,stripes,100,1970,15783,1,1,,1
6172607a932e0b0c3523854d,w9uqwqr4fa,"Mediated Recall_Prolific",1,103,2023-02-05T22:41:13+00:00,8.0330970287323,1,versionA_stim.csv,ReadVersion.csv,Read,Read1,HARD,COTTON,Study1,M,20,16,Test,User,-,,Recall,Recall1,6987,brick,18.181818181818,2439,6432,0,0,,1
6172607a932e0b0c3523854d,w9uqwqr4fa,"Mediated Recall_Prolific",1,104,2023-02-05T22:41:21+00:00,8.6552360057831,1,versionA_stim.csv,ReadVersion.csv,Read,Read1,FUZZY,BANG,Study1,U,50,26,Test,User,-,,Recall,Recall1,7693,bear,50,4409,7175,0,0,,1
6172607a932e0b0c3523854d,w9uqwqr4fa,"Mediated Recall_Prolific",1,105,2023-02-05T22:41:28+00:00,7.1258249282837,1,versionA_stim.csv,ReadVersion.csv,Read,Read1,WAGE,MONEY,Study1,F,22,46,Test,User,-,,Recall,Recall1,6133,salary,18.181818181818,3087,5190,0,0,,1
6172607a932e0b0c3523854d,w9uqwqr4fa,"Mediated Recall_Prolific",1,106,2023-02-05T22:41:41+00:00,12.111099004745,1,versionA_stim.csv,ReadVersion.csv,Read,Read1,,,,,,0,Instruct,-,10,"You will now be presented with a new set of word pairs. Please study each pair. Remember that your memory will be tested! When finished, press Enter to move to the next pair.",Initial_Instruct,Instruct4,11196,,,-1,-1,,,,1
6172607a932e0b0c3523854d,w9uqwqr4fa,"Mediated Recall_Prolific",1,107,2023-02-05T22:41:43+00:00,2.5841898918152,1,versionA_stim.csv,ReadVersion.csv,Read,Read1,,,,,,0,Instruct,User,-,"Press Enter when you are readty to begin",,Instruct11,1719,,,-1,-1,,,,1
6172607a932e0b0c3523854d,w9uqwqr4fa,"Mediated Recall_Prolific",1,108,2023-02-05T22:41:48+00:00,4.5344741344452,1,versionA_stim.csv,ReadVersion.csv,Read,Read1,MOON,SPACE,BUFFER2,Buffer,54,54,Study,User,-,,Study/JOL,BUFFER2,3610,,,-1,-1,,,,1
6172607a932e0b0c3523854d,w9uqwqr4fa,"Mediated Recall_Prolific",1,109,2023-02-05T22:41:50+00:00,2.2199850082397,1,versionA_stim.csv,ReadVersion.csv,Read,Read1,MONTH,YEAR,BUFFER3,Buffer,57,61,Study,User,-,,Study/JOL,BUFFER2,1201,,,-1,-1,,,,1
6172607a932e0b0c3523854d,w9uqwqr4fa,"Mediated Recall_Prolific",1,110,2023-02-05T22:41:54+00:00,4.1466710567474,1,versionA_stim.csv,ReadVersion.csv,Read,Read1,SPRING,MARCH,BUFFER3,Buffer,59,58,Study,User,-,,Study/JOL,BUFFER2,3336,,,-1,-1,,,,1
6172607a932e0b0c3523854d,w9uqwqr4fa,"Mediated Recall_Prolific",1,111,2023-02-05T22:41:56+00:00,2.4012939929962,1,versionA_stim.csv,ReadVersion.csv,Read,Read1,GEESE,GOOSE,BUFFER2,Buffer,51,52,Study,User,-,,Study/JOL,BUFFER2,1578,,,-1,-1,,,,1
6172607a932e0b0c3523854d,w9uqwqr4fa,"Mediated Recall_Prolific",1,112,2023-02-05T22:41:59+00:00,2.1077508926392,1,versionA_stim.csv,ReadVersion.csv,Read,Read1,TOOL,SHED,BUFFER3,Buffer,58,57,Study,User,-,,Study/JOL,BUFFER2,1160,,,-1,-1,,,,1
6172607a932e0b0c3523854d,w9uqwqr4fa,"Mediated Recall_Prolific",1,113,2023-02-05T22:42:02+00:00,2.9774529933929,1,versionA_stim.csv,ReadVersion.csv,Read,Read1,WASP,BUG,Study2,F,89,82,Study,User,-,,Study/JOL,"Study Phase2",2180,,,-1,-1,,,,1
6172607a932e0b0c3523854d,w9uqwqr4fa,"Mediated Recall_Prolific",1,114,2023-02-05T22:42:05+00:00,3.7263951301575,1,versionA_stim.csv,ReadVersion.csv,Read,Read1,LEASE,TOIL,Study2,U,101,84,Study,User,-,,Study/JOL,"Study Phase2",2905,,,-1,-1,,,,1
6172607a932e0b0c3523854d,w9uqwqr4fa,"Mediated Recall_Prolific",1,115,2023-02-05T22:42:07+00:00,2.009694814682,1,versionA_stim.csv,ReadVersion.csv,Read,Read1,CHOP,CUT,Study2,F,77,87,Study,User,-,,Study/JOL,"Study Phase2",761,,,-1,-1,,,,1
6172607a932e0b0c3523854d,w9uqwqr4fa,"Mediated Recall_Prolific",1,116,2023-02-05T22:42:10+00:00,3.0754749774933,1,versionA_stim.csv,ReadVersion.csv,Read,Read1,TRAP,CAVE,Study2,M,70,99,Study,User,-,,Study/JOL,"Study Phase2",2123,,,-1,-1,,,,1
6172607a932e0b0c3523854d,w9uqwqr4fa,"Mediated Recall_Prolific",1,117,2023-02-05T22:42:13+00:00,2.4564352035522,1,versionA_stim.csv,ReadVersion.csv,Read,Read1,BOTH,OUNCE,Study2,U,102,80,Study,User,-,,Study/JOL,"Study Phase2",1645,,,-1,-1,,,,1
6172607a932e0b0c3523854d,w9uqwqr4fa,"Mediated Recall_Prolific",1,118,2023-02-05T22:42:15+00:00,1.8765089511871,1,versionA_stim.csv,ReadVersion.csv,Read,Read1,BLAZE,FIRE,Study2,F,81,67,Study,User,-,,Study/JOL,"Study Phase2",1117,,,-1,-1,,,,1
6172607a932e0b0c3523854d,w9uqwqr4fa,"Mediated Recall_Prolific",1,119,2023-02-05T22:42:17+00:00,1.8202519416809,1,versionA_stim.csv,ReadVersion.csv,Read,Read1,WINDOW,KNOB,Study2,M,74,90,Study,User,-,,Study/JOL,"Study Phase2",1028,,,-1,-1,,,,1
6172607a932e0b0c3523854d,w9uqwqr4fa,"Mediated Recall_Prolific",1,120,2023-02-05T22:42:18+00:00,1.8992159366608,1,versionA_stim.csv,ReadVersion.csv,Read,Read1,SICK,HIDE,Study2,U,100,68,Study,User,-,,Study/JOL,"Study Phase2",1043,,,-1,-1,,,,1
6172607a932e0b0c3523854d,w9uqwqr4fa,"Mediated Recall_Prolific",1,121,2023-02-05T22:42:22+00:00,3.3361940383911,1,versionA_stim.csv,ReadVersion.csv,Read,Read1,EYES,SMELL,Study2,M,65,92,Study,User,-,,Study/JOL,"Study Phase2",2412,,,-1,-1,,,,1
6172607a932e0b0c3523854d,w9uqwqr4fa,"Mediated Recall_Prolific",1,122,2023-02-05T22:42:25+00:00,3.2734739780426,1,versionA_stim.csv,ReadVersion.csv,Read,Read1,HERD,COW,Study2,F,88,69,Study,User,-,,Study/JOL,"Study Phase2",2051,,,-1,-1,,,,1
6172607a932e0b0c3523854d,w9uqwqr4fa,"Mediated Recall_Prolific",1,123,2023-02-05T22:42:28+00:00,2.4956920146942,1,versionA_stim.csv,ReadVersion.csv,Read,Read1,HORNET,STING,Study2,F,85,83,Study,User,-,,Study/JOL,"Study Phase2",1104,,,-1,-1,,,,1
6172607a932e0b0c3523854d,w9uqwqr4fa,"Mediated Recall_Prolific",1,124,2023-02-05T22:42:29+00:00,1.8757920265198,1,versionA_stim.csv,ReadVersion.csv,Read,Read1,CACTUS,PLANT,Study2,F,76,79,Study,User,-,,Study/JOL,"Study Phase2",1113,,,-1,-1,,,,1
6172607a932e0b0c3523854d,w9uqwqr4fa,"Mediated Recall_Prolific",1,125,2023-02-05T22:42:34+00:00,4.2536420822144,1,versionA_stim.csv,ReadVersion.csv,Read,Read1,CHERRY,RED,Study2,F,80,71,Study,User,-,,Study/JOL,"Study Phase2",3371,,,-1,-1,,,,1
6172607a932e0b0c3523854d,w9uqwqr4fa,"Mediated Recall_Prolific",1,126,2023-02-05T22:42:42+00:00,7.8750059604645,1,versionA_stim.csv,ReadVersion.csv,Read,Read1,STRONG,ACCIDENT,Study2,U,94,102,Study,User,-,,Study/JOL,"Study Phase2",6898,,,-1,-1,,,,1
6172607a932e0b0c3523854d,w9uqwqr4fa,"Mediated Recall_Prolific",1,127,2023-02-05T22:42:43+00:00,1.9677259922028,1,versionA_stim.csv,ReadVersion.csv,Read,Read1,BRIDGE,WATER,Study2,F,90,78,Study,User,-,,Study/JOL,"Study Phase2",1096,,,-1,-1,,,,1
6172607a932e0b0c3523854d,w9uqwqr4fa,"Mediated Recall_Prolific",1,128,2023-02-05T22:42:47+00:00,3.1453950405121,1,versionA_stim.csv,ReadVersion.csv,Read,Read1,ARTERY,BRONZE,Study2,U,103,74,Study,User,-,,Study/JOL,"Study Phase2",2313,,,-1,-1,,,,1
6172607a932e0b0c3523854d,w9uqwqr4fa,"Mediated Recall_Prolific",1,129,2023-02-05T22:42:49+00:00,2.1972420215607,1,versionA_stim.csv,ReadVersion.csv,Read,Read1,NURSE,LAWYER,Study2,M,66,75,Study,User,-,,Study/JOL,"Study Phase2",1426,,,-1,-1,,,,1
6172607a932e0b0c3523854d,w9uqwqr4fa,"Mediated Recall_Prolific",1,130,2023-02-05T22:42:52+00:00,3.1938829421997,1,versionA_stim.csv,ReadVersion.csv,Read,Read1,BENCH,HORN,Study2,U,98,98,Study,User,-,,Study/JOL,"Study Phase2",2052,,,-1,-1,,,,1
6172607a932e0b0c3523854d,w9uqwqr4fa,"Mediated Recall_Prolific",1,131,2023-02-05T22:42:56+00:00,3.6275238990784,1,versionA_stim.csv,ReadVersion.csv,Read,Read1,DOCUMENT,PAPER,Study2,F,82,89,Study,User,-,,Study/JOL,"Study Phase2",2819,,,-1,-1,,,,1
6172607a932e0b0c3523854d,w9uqwqr4fa,"Mediated Recall_Prolific",1,132,2023-02-05T22:42:58+00:00,2.671825170517,1,versionA_stim.csv,ReadVersion.csv,Read,Read1,SOAP,DRINK,Study2,M,67,81,Study,User,-,,Study/JOL,"Study Phase2",1563,,,-1,-1,,,,1
6172607a932e0b0c3523854d,w9uqwqr4fa,"Mediated Recall_Prolific",1,133,2023-02-05T22:43:01+00:00,2.5540859699249,1,versionA_stim.csv,ReadVersion.csv,Read,Read1,PUSH,CLUTTER,Study2,U,96,76,Study,User,-,,Study/JOL,"Study Phase2",1633,,,-1,-1,,,,1
6172607a932e0b0c3523854d,w9uqwqr4fa,"Mediated Recall_Prolific",1,134,2023-02-05T22:43:03+00:00,1.7990720272064,1,versionA_stim.csv,ReadVersion.csv,Read,Read1,CHILL,COLD,Study2,F,87,62,Study,User,-,,Study/JOL,"Study Phase2",723,,,-1,-1,,,,1
6172607a932e0b0c3523854d,w9uqwqr4fa,"Mediated Recall_Prolific",1,135,2023-02-05T22:43:05+00:00,2.4831538200378,1,versionA_stim.csv,ReadVersion.csv,Read,Read1,REALITY,ISLAND,Study2,M,64,63,Study,User,-,,Study/JOL,"Study Phase2",1587,,,-1,-1,,,,1
6172607a932e0b0c3523854d,w9uqwqr4fa,"Mediated Recall_Prolific",1,136,2023-02-05T22:43:07+00:00,2.2517130374908,1,versionA_stim.csv,ReadVersion.csv,Read,Read1,SCHOOL,STOP,Study2,M,62,65,Study,User,-,,Study/JOL,"Study Phase2",1408,,,-1,-1,,,,1
6172607a932e0b0c3523854d,w9uqwqr4fa,"Mediated Recall_Prolific",1,137,2023-02-05T22:43:10+00:00,2.5425479412079,1,versionA_stim.csv,ReadVersion.csv,Read,Read1,LEAGUE,BASEBALL,Study2,F,84,77,Study,User,-,,Study/JOL,"Study Phase2",1742,,,-1,-1,,,,1
6172607a932e0b0c3523854d,w9uqwqr4fa,"Mediated Recall_Prolific",1,138,2023-02-05T22:43:12+00:00,2.0002470016479,1,versionA_stim.csv,ReadVersion.csv,Read,Read1,INCENSE,SMELL,Study2,F,83,106,Study,User,-,,Study/JOL,"Study Phase2",1088,,,-1,-1,,,,1
6172607a932e0b0c3523854d,w9uqwqr4fa,"Mediated Recall_Prolific",1,139,2023-02-05T22:43:14+00:00,2.1577579975128,1,versionA_stim.csv,ReadVersion.csv,Read,Read1,ATTIRE,CLOTHES,Study2,F,79,93,Study,User,-,,Study/JOL,"Study Phase2",1069,,,-1,-1,,,,1
6172607a932e0b0c3523854d,w9uqwqr4fa,"Mediated Recall_Prolific",1,140,2023-02-05T22:43:16+00:00,2.0916352272034,1,versionA_stim.csv,ReadVersion.csv,Read,Read1,CHISEL,HAMMER,Study2,F,78,105,Study,User,-,,Study/JOL,"Study Phase2",1118,,,-1,-1,,,,1
6172607a932e0b0c3523854d,w9uqwqr4fa,"Mediated Recall_Prolific",1,141,2023-02-05T22:43:18+00:00,2.0426268577576,1,versionA_stim.csv,ReadVersion.csv,Read,Read1,FEUD,FIGHT,Study2,F,86,104,Study,User,-,,Study/JOL,"Study Phase2",1164,,,-1,-1,,,,1
6172607a932e0b0c3523854d,w9uqwqr4fa,"Mediated Recall_Prolific",1,142,2023-02-05T22:43:20+00:00,2.1035199165344,1,versionA_stim.csv,ReadVersion.csv,Read,Read1,HAPPY,CAR,Study2,U,92,73,Study,User,-,,Study/JOL,"Study Phase2",1188,,,-1,-1,,,,1
6172607a932e0b0c3523854d,w9uqwqr4fa,"Mediated Recall_Prolific",1,143,2023-02-05T22:43:24+00:00,3.4244780540466,1,versionA_stim.csv,ReadVersion.csv,Read,Read1,CASH,LEG,Study2,U,105,97,Study,User,-,,Study/JOL,"Study Phase2",2427,,,-1,-1,,,,1
6172607a932e0b0c3523854d,w9uqwqr4fa,"Mediated Recall_Prolific",1,144,2023-02-05T22:43:28+00:00,4.675400018692,1,versionA_stim.csv,ReadVersion.csv,Read,Read1,RAZOR,MUSCLE,Study2,M,75,91,Study,User,-,,Study/JOL,"Study Phase2",3785,,,-1,-1,,,,0.846
6172607a932e0b0c3523854d,w9uqwqr4fa,"Mediated Recall_Prolific",1,145,2023-02-05T22:43:32+00:00,3.5485680103302,1,versionA_stim.csv,ReadVersion.csv,Read,Read1,KING,VASE,Study2,U,91,96,Study,User,-,,Study/JOL,"Study Phase2",2621,,,-1,-1,,,,1
6172607a932e0b0c3523854d,w9uqwqr4fa,"Mediated Recall_Prolific",1,146,2023-02-05T22:43:34+00:00,1.9204709529877,1,versionA_stim.csv,ReadVersion.csv,Read,Read1,RAKE,SEED,Study2,M,69,100,Study,User,-,,Study/JOL,"Study Phase2",1091,,,-1,-1,,,,1
6172607a932e0b0c3523854d,w9uqwqr4fa,"Mediated Recall_Prolific",1,147,2023-02-05T22:43:36+00:00,2.2274820804596,1,versionA_stim.csv,ReadVersion.csv,Read,Read1,SUGAR,RIDDLE,Study2,U,95,72,Study,User,-,,Study/JOL,"Study Phase2",891,,,-1,-1,,,,1
6172607a932e0b0c3523854d,w9uqwqr4fa,"Mediated Recall_Prolific",1,148,2023-02-05T22:43:38+00:00,2.208074092865,1,versionA_stim.csv,ReadVersion.csv,Read,Read1,GRILL,THIGH,Study2,M,72,101,Study,User,-,,Study/JOL,"Study Phase2",921,,,-1,-1,,,,1
6172607a932e0b0c3523854d,w9uqwqr4fa,"Mediated Recall_Prolific",1,149,2023-02-05T22:43:40+00:00,1.9737849235535,1,versionA_stim.csv,ReadVersion.csv,Read,Read1,HEAVY,FEATHER,Study2,M,68,94,Study,User,-,,Study/JOL,"Study Phase2",1035,,,-1,-1,,,,1
6172607a932e0b0c3523854d,w9uqwqr4fa,"Mediated Recall_Prolific",1,150,2023-02-05T22:43:42+00:00,1.960165977478,1,versionA_stim.csv,ReadVersion.csv,Read,Read1,OVEN,BASKET,Study2,M,71,95,Study,User,-,,Study/JOL,"Study Phase2",921,,,-1,-1,,,,1
6172607a932e0b0c3523854d,w9uqwqr4fa,"Mediated Recall_Prolific",1,151,2023-02-05T22:43:44+00:00,1.8990039825439,1,versionA_stim.csv,ReadVersion.csv,Read,Read1,DEATH,BUSINESS,Study2,U,99,66,Study,User,-,,Study/JOL,"Study Phase2",847,,,-1,-1,,,,1
6172607a932e0b0c3523854d,w9uqwqr4fa,"Mediated Recall_Prolific",1,152,2023-02-05T22:43:46+00:00,2.0128569602966,1,versionA_stim.csv,ReadVersion.csv,Read,Read1,PANTS,COLLAR,Study2,M,63,64,Study,User,-,,Study/JOL,"Study Phase2",858,,,-1,-1,,,,1
6172607a932e0b0c3523854d,w9uqwqr4fa,"Mediated Recall_Prolific",1,153,2023-02-05T22:43:48+00:00,1.9518690109253,1,versionA_stim.csv,ReadVersion.csv,Read,Read1,DIETARY,SACK,Study2,U,97,103,Study,User,-,,Study/JOL,"Study Phase2",878,,,-1,-1,,,,1
6172607a932e0b0c3523854d,w9uqwqr4fa,"Mediated Recall_Prolific",1,154,2023-02-05T22:43:50+00:00,1.9888870716095,1,versionA_stim.csv,ReadVersion.csv,Read,Read1,MIRROR,CHILDREN,Study2,U,104,70,Study,User,-,,Study/JOL,"Study Phase2",1091,,,-1,-1,,,,1
6172607a932e0b0c3523854d,w9uqwqr4fa,"Mediated Recall_Prolific",1,155,2023-02-05T22:43:52+00:00,2.0690619945526,1,versionA_stim.csv,ReadVersion.csv,Read,Read1,SUMMER,SNOW,Study2,M,61,88,Study,User,-,,Study/JOL,"Study Phase2",1045,,,-1,-1,,,,1
6172607a932e0b0c3523854d,w9uqwqr4fa,"Mediated Recall_Prolific",1,156,2023-02-05T22:43:56+00:00,3.3770740032196,1,versionA_stim.csv,ReadVersion.csv,Read,Read1,ART,WOLF,Study2,U,93,86,Study,User,-,,Study/JOL,"Study Phase2",2430,,,-1,-1,,,,1
6172607a932e0b0c3523854d,w9uqwqr4fa,"Mediated Recall_Prolific",1,157,2023-02-05T22:43:57+00:00,1.7614839076996,1,versionA_stim.csv,ReadVersion.csv,Read,Read1,VALLEY,PEAK,Study2,M,73,85,Study,User,-,,Study/JOL,"Study Phase2",868,,,-1,-1,,,,1
6172607a932e0b0c3523854d,w9uqwqr4fa,"Mediated Recall_Prolific",1,158,2023-02-05T22:44:00+00:00,2.1721551418304,1,versionA_stim.csv,ReadVersion.csv,Read,Read1,THING,STUFF,BUFFER2,Buffer,55,55,Study,User,-,,Study/JOL,BUFFER2,859,,,-1,-1,,,,1
6172607a932e0b0c3523854d,w9uqwqr4fa,"Mediated Recall_Prolific",1,159,2023-02-05T22:44:02+00:00,2.655378818512,1,versionA_stim.csv,ReadVersion.csv,Read,Read1,CAMP,ADVENTURE,BUFFER4,Buffer,110,109,Study,User,-,,Study/JOL,BUFFER2,1776,,,-1,-1,,,,1
6172607a932e0b0c3523854d,w9uqwqr4fa,"Mediated Recall_Prolific",1,160,2023-02-05T22:44:04+00:00,1.8578441143036,1,versionA_stim.csv,ReadVersion.csv,Read,Read1,ICE,FROZEN,BUFFER4,Buffer,109,111,Study,User,-,,Study/JOL,BUFFER2,901,,,-1,-1,,,,1
6172607a932e0b0c3523854d,w9uqwqr4fa,"Mediated Recall_Prolific",1,161,2023-02-05T22:44:06+00:00,2.0176630020142,1,versionA_stim.csv,ReadVersion.csv,Read,Read1,NOODLE,STRING,BUFFER4,Buffer,107,108,Study,User,-,,Study/JOL,BUFFER2,889,,,-1,-1,,,,1
6172607a932e0b0c3523854d,w9uqwqr4fa,"Mediated Recall_Prolific",1,162,2023-02-05T22:44:08+00:00,1.8779599666595,1,versionA_stim.csv,ReadVersion.csv,Read,Read1,MALT,CHOCOLATE,BUFFER2,Buffer,53,56,Study,User,-,,Study/JOL,BUFFER2,840,,,-1,-1,,,,1
6172607a932e0b0c3523854d,w9uqwqr4fa,"Mediated Recall_Prolific",1,163,2023-02-05T22:44:10+00:00,2.4347901344299,1,versionA_stim.csv,ReadVersion.csv,Read,Read1,,,,,,0,Instruct,User,-,"You have completed this section. Please press Enter.",Filler_Instruction,Instruct2,1640,,,-1,-1,,,,1
6172607a932e0b0c3523854d,w9uqwqr4fa,"Mediated Recall_Prolific",1,164,2023-02-05T22:46:12+00:00,121.44272398949,1,versionA_stim.csv,ReadVersion.csv,Read,Read1,,,,,,0,FreeRecall,120,120,"Please list the 50 US states in alphabetical order. The task will automatically advance to the next screen after two minutes.",,Filler1,120057,"Alaska california Florida Hawaii Idaho Iowa Louisiana Nebraska Nevada North Dakota South Dakota Tennesee Texas Utah Virginia Washington West Virgina ",0,3580,117749,0,0,,1
6172607a932e0b0c3523854d,w9uqwqr4fa,"Mediated Recall_Prolific",1,165,2023-02-05T22:46:23+00:00,11.49803686142,1,versionA_stim.csv,ReadVersion.csv,Read,Read1,,,,,,0,Instruct,-,10,"You will now be presented with the first word from each of the previously studied item pairs. Please type the missing word. If you do not know the word, you may guess or press Enter to skip forward to the next pair.",,Instruct3,10458,,,-1,-1,,,,1
6172607a932e0b0c3523854d,w9uqwqr4fa,"Mediated Recall_Prolific",1,166,2023-02-05T22:46:31+00:00,7.5307669639587,1,versionA_stim.csv,ReadVersion.csv,Read,Read1,EYES,SMELL,Study2,M,65,92,Test,User,-,,Recall,Recall2,6711,glasses,16.666666666667,3882,5897,0,0,,1
6172607a932e0b0c3523854d,w9uqwqr4fa,"Mediated Recall_Prolific",1,167,2023-02-05T22:46:35+00:00,4.0468111038208,1,versionA_stim.csv,ReadVersion.csv,Read,Read1,KING,VASE,Study2,U,91,96,Test,User,-,,Recall,Recall2,3069,queen,22.222222222222,1756,2477,0,0,,1
6172607a932e0b0c3523854d,w9uqwqr4fa,"Mediated Recall_Prolific",1,168,2023-02-05T22:46:40+00:00,5.5315599441528,1,versionA_stim.csv,ReadVersion.csv,Read,Read1,VALLEY,PEAK,Study2,M,73,85,Test,User,-,,Recall,Recall2,4321,peak,100,1275,1572,1,1,,1
6172607a932e0b0c3523854d,w9uqwqr4fa,"Mediated Recall_Prolific",1,169,2023-02-05T22:46:46+00:00,5.0799770355225,1,versionA_stim.csv,ReadVersion.csv,Read,Read1,SICK,HIDE,Study2,U,100,68,Test,User,-,,Recall,Recall2,4146,fever,22.222222222222,2501,3096,0,0,,1
6172607a932e0b0c3523854d,w9uqwqr4fa,"Mediated Recall_Prolific",1,170,2023-02-05T22:46:52+00:00,6.5925230979919,1,versionA_stim.csv,ReadVersion.csv,Read,Read1,SCHOOL,STOP,Study2,M,62,65,Test,User,-,,Recall,Recall2,5592,stop,100,2993,5066,1,1,,1
6172607a932e0b0c3523854d,w9uqwqr4fa,"Mediated Recall_Prolific",1,171,2023-02-05T22:47:02+00:00,10.065395832062,1,versionA_stim.csv,ReadVersion.csv,Read,Read1,DEATH,BUSINESS,Study2,U,99,66,Test,User,-,,Recall,Recall2,8951,alive,30.769230769231,4075,8261,0,0,,1
6172607a932e0b0c3523854d,w9uqwqr4fa,"Mediated Recall_Prolific",1,172,2023-02-05T22:47:15+00:00,12.645014047623,1,versionA_stim.csv,ReadVersion.csv,Read,Read1,HEAVY,FEATHER,Study2,M,68,94,Test,User,-,,Recall,Recall2,11362,lift,36.363636363636,8944,9526,0,0,,1
6172607a932e0b0c3523854d,w9uqwqr4fa,"Mediated Recall_Prolific",1,173,2023-02-05T22:47:23+00:00,8.3494911193848,1,versionA_stim.csv,ReadVersion.csv,Read,Read1,MIRROR,CHILDREN,Study2,U,104,70,Test,User,-,,Recall,Recall2,7433,children,100,2258,4998,1,1,,1
6172607a932e0b0c3523854d,w9uqwqr4fa,"Mediated Recall_Prolific",1,174,2023-02-05T22:47:28+00:00,5.1679668426514,1,versionA_stim.csv,ReadVersion.csv,Read,Read1,CHOP,CUT,Study2,F,77,87,Test,User,-,,Recall,Recall2,4114,steak,25,2147,3592,0,0,,1
6172607a932e0b0c3523854d,w9uqwqr4fa,"Mediated Recall_Prolific",1,175,2023-02-05T22:47:35+00:00,6.8623540401459,1,versionA_stim.csv,ReadVersion.csv,Read,Read1,ART,WOLF,Study2,U,93,86,Test,User,-,,Recall,Recall2,5990,class,22.222222222222,2493,3809,0,0,,1
6172607a932e0b0c3523854d,w9uqwqr4fa,"Mediated Recall_Prolific",1,176,2023-02-05T22:47:41+00:00,5.5267770290375,1,versionA_stim.csv,ReadVersion.csv,Read,Read1,GRILL,THIGH,Study2,M,72,101,Test,User,-,,Recall,Recall2,4702,thigh,100,2942,3877,1,1,,1
6172607a932e0b0c3523854d,w9uqwqr4fa,"Mediated Recall_Prolific",1,177,2023-02-05T22:47:44+00:00,3.7145719528198,1,versionA_stim.csv,ReadVersion.csv,Read,Read1,DIETARY,SACK,Study2,U,97,103,Test,User,-,,Recall,Recall2,2954,milk,25,1955,2445,0,0,,1
6172607a932e0b0c3523854d,w9uqwqr4fa,"Mediated Recall_Prolific",1,178,2023-02-05T22:47:51+00:00,6.7790760993958,1,versionA_stim.csv,ReadVersion.csv,Read,Read1,WASP,BUG,Study2,F,89,82,Test,User,-,,Recall,Recall2,5829,nest,0,4213,5289,0,0,,1
6172607a932e0b0c3523854d,w9uqwqr4fa,"Mediated Recall_Prolific",1,179,2023-02-05T22:47:58+00:00,6.3412818908691,1,versionA_stim.csv,ReadVersion.csv,Read,Read1,CASH,LEG,Study2,U,105,97,Test,User,-,,Recall,Recall2,5330,card,0,4023,4844,0,0,,1
6172607a932e0b0c3523854d,w9uqwqr4fa,"Mediated Recall_Prolific",1,180,2023-02-05T22:48:07+00:00,9.2689120769501,1,versionA_stim.csv,ReadVersion.csv,Read,Read1,INCENSE,SMELL,Study2,F,83,106,Test,User,-,,Recall,Recall2,8472,scent,40,2028,7924,0,0,,1
6172607a932e0b0c3523854d,w9uqwqr4fa,"Mediated Recall_Prolific",1,181,2023-02-05T22:48:14+00:00,7.3228180408478,1,versionA_stim.csv,ReadVersion.csv,Read,Read1,RAKE,SEED,Study2,M,69,100,Test,User,-,,Recall,Recall2,6202,seeds,88.888888888889,4683,5469,0,1,,1
6172607a932e0b0c3523854d,w9uqwqr4fa,"Mediated Recall_Prolific",1,182,2023-02-05T22:48:19+00:00,5.1252889633179,1,versionA_stim.csv,ReadVersion.csv,Read,Read1,SUGAR,RIDDLE,Study2,U,95,72,Test,User,-,,Recall,Recall2,4139,cane,20,2208,3594,0,0,,1
6172607a932e0b0c3523854d,w9uqwqr4fa,"Mediated Recall_Prolific",1,183,2023-02-05T22:48:24+00:00,4.9354350566864,1,versionA_stim.csv,ReadVersion.csv,Read,Read1,DOCUMENT,PAPER,Study2,F,82,89,Test,User,-,,Recall,Recall2,4142,paper,100,2069,3438,1,1,,1
6172607a932e0b0c3523854d,w9uqwqr4fa,"Mediated Recall_Prolific",1,184,2023-02-05T22:48:32+00:00,7.9205260276794,1,versionA_stim.csv,ReadVersion.csv,Read,Read1,CHILL,COLD,Study2,F,87,62,Test,User,-,,Recall,Recall2,6900,cold,100,4855,5994,1,1,,1
6172607a932e0b0c3523854d,w9uqwqr4fa,"Mediated Recall_Prolific",1,185,2023-02-05T22:48:46+00:00,13.797381877899,1,versionA_stim.csv,ReadVersion.csv,Read,Read1,TRAP,CAVE,Study2,M,70,99,Test,User,-,,Recall,Recall2,12783,door,0,4909,10120,0,0,,1
6172607a932e0b0c3523854d,w9uqwqr4fa,"Mediated Recall_Prolific",1,186,2023-02-05T22:48:59+00:00,13.200159072876,1,versionA_stim.csv,ReadVersion.csv,Read,Read1,RAZOR,MUSCLE,Study2,M,75,91,Test,User,-,,Recall,Recall2,12104,blade,36.363636363636,9181,10363,0,0,,1
6172607a932e0b0c3523854d,w9uqwqr4fa,"Mediated Recall_Prolific",1,187,2023-02-05T22:49:05+00:00,5.9033539295197,1,versionA_stim.csv,ReadVersion.csv,Read,Read1,ATTIRE,CLOTHES,Study2,F,79,93,Test,User,-,,Recall,Recall2,4836,clothes,100,2473,4191,1,1,,1
6172607a932e0b0c3523854d,w9uqwqr4fa,"Mediated Recall_Prolific",1,188,2023-02-05T22:49:11+00:00,5.785453081131,1,versionA_stim.csv,ReadVersion.csv,Read,Read1,REALITY,ISLAND,Study2,M,64,63,Test,User,-,,Recall,Recall2,4868,island,100,2261,4320,1,1,,1
6172607a932e0b0c3523854d,w9uqwqr4fa,"Mediated Recall_Prolific",1,189,2023-02-05T22:49:17+00:00,6.4111089706421,1,versionA_stim.csv,ReadVersion.csv,Read,Read1,CHISEL,HAMMER,Study2,F,78,105,Test,User,-,,Recall,Recall2,5178,wood,0,3293,4272,0,0,,1
6172607a932e0b0c3523854d,w9uqwqr4fa,"Mediated Recall_Prolific",1,190,2023-02-05T22:49:28+00:00,10.812247991562,1,versionA_stim.csv,ReadVersion.csv,Read,Read1,BLAZE,FIRE,Study2,F,81,67,Test,User,-,,Recall,Recall2,9660,fire,100,4646,9201,1,1,,1
6172607a932e0b0c3523854d,w9uqwqr4fa,"Mediated Recall_Prolific",1,191,2023-02-05T22:49:35+00:00,7.0882358551025,1,versionA_stim.csv,ReadVersion.csv,Read,Read1,STRONG,ACCIDENT,Study2,U,94,102,Test,User,-,,Recall,Recall2,6030,wood,16.666666666667,4614,5561,0,0,,1
6172607a932e0b0c3523854d,w9uqwqr4fa,"Mediated Recall_Prolific",1,192,2023-02-05T22:49:41+00:00,5.7368061542511,1,versionA_stim.csv,ReadVersion.csv,Read,Read1,CACTUS,PLANT,Study2,F,76,79,Test,User,-,,Recall,Recall2,4777,plant,100,2004,3656,1,1,,1
6172607a932e0b0c3523854d,w9uqwqr4fa,"Mediated Recall_Prolific",1,193,2023-02-05T22:49:46+00:00,5.315701007843,1,versionA_stim.csv,ReadVersion.csv,Read,Read1,ARTERY,BRONZE,Study2,U,103,74,Test,User,-,,Recall,Recall2,4352,blood,36.363636363636,2841,3839,0,0,,1
6172607a932e0b0c3523854d,w9uqwqr4fa,"Mediated Recall_Prolific",1,194,2023-02-05T22:49:55+00:00,8.3830769062042,1,versionA_stim.csv,ReadVersion.csv,Read,Read1,HORNET,STING,Study2,F,85,83,Test,User,-,,Recall,Recall2,7423,sting,100,1811,6514,1,1,,1
6172607a932e0b0c3523854d,w9uqwqr4fa,"Mediated Recall_Prolific",1,195,2023-02-05T22:50:02+00:00,7.7944269180298,1,versionA_stim.csv,ReadVersion.csv,Read,Read1,LEAGUE,BASEBALL,Study2,F,84,77,Test,User,-,,Recall,Recall2,6922,sport,15.384615384615,4535,6064,0,0,,1
6172607a932e0b0c3523854d,w9uqwqr4fa,"Mediated Recall_Prolific",1,196,2023-02-05T22:50:08+00:00,5.3579950332642,1,versionA_stim.csv,ReadVersion.csv,Read,Read1,SUMMER,SNOW,Study2,M,61,88,Test,User,-,,Recall,Recall2,4342,spring,40,2009,3731,0,0,,1
6172607a932e0b0c3523854d,w9uqwqr4fa,"Mediated Recall_Prolific",1,197,2023-02-05T22:50:13+00:00,4.9775660037994,1,versionA_stim.csv,ReadVersion.csv,Read,Read1,HAPPY,CAR,Study2,U,92,73,Test,User,-,,Recall,Recall2,4131,smile,0,2197,3623,0,0,,1
6172607a932e0b0c3523854d,w9uqwqr4fa,"Mediated Recall_Prolific",1,198,2023-02-05T22:50:21+00:00,8.5457420349121,1,versionA_stim.csv,ReadVersion.csv,Read,Read1,OVEN,BASKET,Study2,M,71,95,Test,User,-,,Recall,Recall2,7390,basket,100,5048,6574,1,1,,1
6172607a932e0b0c3523854d,w9uqwqr4fa,"Mediated Recall_Prolific",1,199,2023-02-05T22:50:26+00:00,4.9395639896393,1,versionA_stim.csv,ReadVersion.csv,Read,Read1,HERD,COW,Study2,F,88,69,Test,User,-,,Recall,Recall2,3936,cows,85.714285714286,1629,3412,0,1,,1
6172607a932e0b0c3523854d,w9uqwqr4fa,"Mediated Recall_Prolific",1,200,2023-02-05T22:50:46+00:00,20.157773971558,1,versionA_stim.csv,ReadVersion.csv,Read,Read1,SOAP,DRINK,Study2,M,67,81,Test,User,-,,Recall,Recall2,19232,sink,66.666666666667,11427,18704,0,0,,1
6172607a932e0b0c3523854d,w9uqwqr4fa,"Mediated Recall_Prolific",1,201,2023-02-05T22:50:52+00:00,5.8032960891724,1,versionA_stim.csv,ReadVersion.csv,Read,Read1,CHERRY,RED,Study2,F,80,71,Test,User,-,,Recall,Recall2,4441,red,100,1692,3541,1,1,,1
6172607a932e0b0c3523854d,w9uqwqr4fa,"Mediated Recall_Prolific",1,202,2023-02-05T22:51:00+00:00,7.562637090683,1,versionA_stim.csv,ReadVersion.csv,Read,Read1,BOTH,OUNCE,Study2,U,102,80,Test,User,-,,Recall,Recall2,6511,two,25,2571,5281,0,0,,1
6172607a932e0b0c3523854d,w9uqwqr4fa,"Mediated Recall_Prolific",1,203,2023-02-05T22:51:06+00:00,5.8308010101318,1,versionA_stim.csv,ReadVersion.csv,Read,Read1,WINDOW,KNOB,Study2,M,74,90,Test,User,-,,Recall,Recall2,4983,glass,0,2916,4393,0,0,,1
6172607a932e0b0c3523854d,w9uqwqr4fa,"Mediated Recall_Prolific",1,204,2023-02-05T22:51:14+00:00,8.0424828529358,1,versionA_stim.csv,ReadVersion.csv,Read,Read1,FEUD,FIGHT,Study2,F,86,104,Test,User,-,,Recall,Recall2,6982,fight,100,3547,4798,1,1,,1
6172607a932e0b0c3523854d,w9uqwqr4fa,"Mediated Recall_Prolific",1,205,2023-02-05T22:51:19+00:00,5.438334941864,1,versionA_stim.csv,ReadVersion.csv,Read,Read1,BRIDGE,WATER,Study2,F,90,78,Test,User,-,,Recall,Recall2,3643,water,100,1839,3179,1,1,,1
6172607a932e0b0c3523854d,w9uqwqr4fa,"Mediated Recall_Prolific",1,206,2023-02-05T22:51:27+00:00,7.6459600925446,1,versionA_stim.csv,ReadVersion.csv,Read,Read1,PUSH,CLUTTER,Study2,U,96,76,Test,User,-,,Recall,Recall2,6288,pull,18.181818181818,4072,5779,0,0,,1
6172607a932e0b0c3523854d,w9uqwqr4fa,"Mediated Recall_Prolific",1,207,2023-02-05T22:51:32+00:00,5.5324890613556,1,versionA_stim.csv,ReadVersion.csv,Read,Read1,NURSE,LAWYER,Study2,M,66,75,Test,User,-,,Recall,Recall2,4402,lawyer,100,2206,3888,1,1,,1
6172607a932e0b0c3523854d,w9uqwqr4fa,"Mediated Recall_Prolific",1,208,2023-02-05T22:51:37+00:00,4.8893990516663,1,versionA_stim.csv,ReadVersion.csv,Read,Read1,BENCH,HORN,Study2,U,98,98,Test,User,-,,Recall,Recall2,3554,sit,0,1766,2683,0,0,,1
6172607a932e0b0c3523854d,w9uqwqr4fa,"Mediated Recall_Prolific",1,209,2023-02-05T22:51:46+00:00,8.6613218784332,1,versionA_stim.csv,ReadVersion.csv,Read,Read1,PANTS,COLLAR,Study2,M,63,64,Test,User,-,,Recall,Recall2,7657,coat,60,3865,7060,0,0,,1
6172607a932e0b0c3523854d,w9uqwqr4fa,"Mediated Recall_Prolific",1,210,2023-02-05T22:51:52+00:00,5.8217461109161,1,versionA_stim.csv,ReadVersion.csv,Read,Read1,LEASE,TOIL,Study2,U,101,84,Test,User,-,,Recall,Recall2,4862,sign,25,3277,4309,0,0,,1
6172607a932e0b0c3523854d,w9uqwqr4fa,"Mediated Recall_Prolific",1,211,2023-02-05T22:51:53+00:00,1.8914198875427,1,versionA_stim.csv,ReadVersion.csv,Read,Read1,,,,,,0,Instruct,User,-,"You have completed this section. Please press Enter.",,Instruct7,1028,,,-1,-1,,,,1
6172607a932e0b0c3523854d,w9uqwqr4fa,"Mediated Recall_Prolific",1,212,2023-02-05T22:51:56+00:00,2.3685989379883,1,versionA_stim.csv,ReadVersion.csv,Read,Read1,,,,,,0,Instruct,User,-,"The following screen will ask you a few questions abour your experience today. You must complete these questions to receive credit.",,Instruct8,1559,,,-1,-1,,,,1
