Username,ID,ExperimentName,Session,Trial,Date,TimeDif,"Condition Number","Stimuli File","Order File","Condition Description","Condition Notes",Stimuli*Cue,Stimuli*Answer,Stimuli*Shuffle,"Stimuli*Stimuli Notes",Stimuli*Value,Procedure*Item,"Procedure*Trial Type","Procedure*Max Time","Procedure*Min Time",Procedure*Text,"Procedure*Procedure Notes",Procedure*Shuffle,Response*RT,Response*Response,Response*Accuracy,Response*RTfirst,Response*RTlast,Response*strictAcc,Response*lenientAcc,Response*focus,Response*Focus
628e0063fa56e316da2a71cb,ioyds5n8e2,"Mediated Recall_Prolific",1,1,2023-02-05T23:52:49+00:00,7.2136688232422,1,versionA_stim.csv,ReadVersion.csv,Read,Read1,,,,,,0,Instruct,-,5,"In this section, you will be presented with a series of word pairs. Please study each word pair! Your memory will be tested!",Initial_Instruct,Instruct1,7090,,,-1,-1,,,,1
628e0063fa56e316da2a71cb,ioyds5n8e2,"Mediated Recall_Prolific",1,2,2023-02-05T23:52:53+00:00,4.199404001236,1,versionA_stim.csv,ReadVersion.csv,Read,Read1,,,,,,0,Instruct,User,-,"You will now begin. Press Enter when you are ready to begin.",,Instruct16,4035,,,-1,-1,,,,1
628e0063fa56e316da2a71cb,ioyds5n8e2,"Mediated Recall_Prolific",1,3,2023-02-05T23:52:56+00:00,3.5942521095276,1,versionA_stim.csv,ReadVersion.csv,Read,Read1,PEANUT,BUTTER,BUFFER1,Buffer,3,5,Study,User,-,,Study/JOL,BUFFER,3439,,,-1,-1,,,,1
628e0063fa56e316da2a71cb,ioyds5n8e2,"Mediated Recall_Prolific",1,4,2023-02-05T23:53:00+00:00,3.0663568973541,1,versionA_stim.csv,ReadVersion.csv,Read,Read1,SPACE,JAM,BUFFER1,Buffer,5,6,Study,User,-,,Study/JOL,BUFFER,2910,,,-1,-1,,,,1
628e0063fa56e316da2a71cb,ioyds5n8e2,"Mediated Recall_Prolific",1,5,2023-02-05T23:53:02+00:00,2.6909770965576,1,versionA_stim.csv,ReadVersion.csv,Read,Read1,SCARE,FRIGHT,BUFFER1,Buffer,4,2,Study,User,-,,Study/JOL,BUFFER,2542,,,-1,-1,,,,1
628e0063fa56e316da2a71cb,ioyds5n8e2,"Mediated Recall_Prolific",1,6,2023-02-05T23:53:04+00:00,1.9761199951172,1,versionA_stim.csv,ReadVersion.csv,Read,Read1,TREES,GREEN,BUFFER1,Buffer,1,3,Study,User,-,,Study/JOL,BUFFER,1828,,,-1,-1,,,,1
628e0063fa56e316da2a71cb,ioyds5n8e2,"Mediated Recall_Prolific",1,7,2023-02-05T23:53:06+00:00,2.2196009159088,1,versionA_stim.csv,ReadVersion.csv,Read,Read1,PITCHER,CATCHER,BUFFER1,Buffer,2,4,Study,User,-,,Study/JOL,BUFFER,2067,,,-1,-1,,,,1
628e0063fa56e316da2a71cb,ioyds5n8e2,"Mediated Recall_Prolific",1,8,2023-02-05T23:53:09+00:00,2.1794431209564,1,versionA_stim.csv,ReadVersion.csv,Read,Read1,CAKE,HAND,Study1,U,49,30,Study,User,-,,Study/JOL,"Study Phase",2031,,,-1,-1,,,,1
628e0063fa56e316da2a71cb,ioyds5n8e2,"Mediated Recall_Prolific",1,9,2023-02-05T23:53:11+00:00,2.2000770568848,1,versionA_stim.csv,ReadVersion.csv,Read,Read1,SIP,DRINK,Study1,F,32,43,Study,User,-,,Study/JOL,"Study Phase",2041,,,-1,-1,,,,1
628e0063fa56e316da2a71cb,ioyds5n8e2,"Mediated Recall_Prolific",1,10,2023-02-05T23:53:13+00:00,2.2532858848572,1,versionA_stim.csv,ReadVersion.csv,Read,Read1,BEACH,BOX,Study1,M,7,25,Study,User,-,,Study/JOL,"Study Phase",2085,,,-1,-1,,,,1
628e0063fa56e316da2a71cb,ioyds5n8e2,"Mediated Recall_Prolific",1,11,2023-02-05T23:53:15+00:00,1.9549739360809,1,versionA_stim.csv,ReadVersion.csv,Read,Read1,BAT,BOUNCE,Study1,M,12,19,Study,User,-,,Study/JOL,"Study Phase",1809,,,-1,-1,,,,1
628e0063fa56e316da2a71cb,ioyds5n8e2,"Mediated Recall_Prolific",1,12,2023-02-05T23:53:17+00:00,1.871778011322,1,versionA_stim.csv,ReadVersion.csv,Read,Read1,SWAN,BIRD,Study1,F,26,21,Study,User,-,,Study/JOL,"Study Phase",1722,,,-1,-1,,,,1
628e0063fa56e316da2a71cb,ioyds5n8e2,"Mediated Recall_Prolific",1,13,2023-02-05T23:53:19+00:00,1.6484241485596,1,versionA_stim.csv,ReadVersion.csv,Read,Read1,BIRTHDAY,PIE,Study1,M,9,32,Study,User,-,,Study/JOL,"Study Phase",1503,,,-1,-1,,,,1
628e0063fa56e316da2a71cb,ioyds5n8e2,"Mediated Recall_Prolific",1,14,2023-02-05T23:53:21+00:00,2.3682420253754,1,versionA_stim.csv,ReadVersion.csv,Read,Read1,CRACKLE,ELECTION,Study1,U,39,35,Study,User,-,,Study/JOL,"Study Phase",2217,,,-1,-1,,,,1
628e0063fa56e316da2a71cb,ioyds5n8e2,"Mediated Recall_Prolific",1,15,2023-02-05T23:53:24+00:00,2.7948708534241,1,versionA_stim.csv,ReadVersion.csv,Read,Read1,MEAT,KEYS,Study1,U,41,12,Study,User,-,,Study/JOL,"Study Phase",2645,,,-1,-1,,,,1
628e0063fa56e316da2a71cb,ioyds5n8e2,"Mediated Recall_Prolific",1,16,2023-02-05T23:53:26+00:00,2.1267080307007,1,versionA_stim.csv,ReadVersion.csv,Read,Read1,ROOT,PLANT,Study1,F,25,7,Study,User,-,,Study/JOL,"Study Phase",1970,,,-1,-1,,,,1
628e0063fa56e316da2a71cb,ioyds5n8e2,"Mediated Recall_Prolific",1,17,2023-02-05T23:53:28+00:00,2.0362379550934,1,versionA_stim.csv,ReadVersion.csv,Read,Read1,CRY,BOTTLE,Study1,M,16,23,Study,User,-,,Study/JOL,"Study Phase",1891,,,-1,-1,,,,1
628e0063fa56e316da2a71cb,ioyds5n8e2,"Mediated Recall_Prolific",1,18,2023-02-05T23:53:30+00:00,2.1468570232391,1,versionA_stim.csv,ReadVersion.csv,Read,Read1,FUZZY,BANG,Study1,U,50,22,Study,User,-,,Study/JOL,"Study Phase",1999,,,-1,-1,,,,1
628e0063fa56e316da2a71cb,ioyds5n8e2,"Mediated Recall_Prolific",1,19,2023-02-05T23:53:32+00:00,1.938873052597,1,versionA_stim.csv,ReadVersion.csv,Read,Read1,CREDIT,CARD,Study1,F,33,49,Study,User,-,,Study/JOL,"Study Phase",1788,,,-1,-1,,,,1
628e0063fa56e316da2a71cb,ioyds5n8e2,"Mediated Recall_Prolific",1,20,2023-02-05T23:53:34+00:00,2.3172340393066,1,versionA_stim.csv,ReadVersion.csv,Read,Read1,WAR,QUIET,Study1,M,8,11,Study,User,-,,Study/JOL,"Study Phase",2170,,,-1,-1,,,,1
628e0063fa56e316da2a71cb,ioyds5n8e2,"Mediated Recall_Prolific",1,21,2023-02-05T23:53:37+00:00,2.3214099407196,1,versionA_stim.csv,ReadVersion.csv,Read,Read1,GIVE,STEAK,Study1,U,38,24,Study,User,-,,Study/JOL,"Study Phase",2168,,,-1,-1,,,,1
628e0063fa56e316da2a71cb,ioyds5n8e2,"Mediated Recall_Prolific",1,22,2023-02-05T23:53:39+00:00,2.2644538879395,1,versionA_stim.csv,ReadVersion.csv,Read,Read1,LISTEN,FICTION,Study1,U,44,10,Study,User,-,,Study/JOL,"Study Phase",2114,,,-1,-1,,,,1
628e0063fa56e316da2a71cb,ioyds5n8e2,"Mediated Recall_Prolific",1,23,2023-02-05T23:53:41+00:00,2.3294770717621,1,versionA_stim.csv,ReadVersion.csv,Read,Read1,WAGE,MONEY,Study1,F,22,18,Study,User,-,,Study/JOL,"Study Phase",2180,,,-1,-1,,,,1
628e0063fa56e316da2a71cb,ioyds5n8e2,"Mediated Recall_Prolific",1,24,2023-02-05T23:53:43+00:00,2.2962970733643,1,versionA_stim.csv,ReadVersion.csv,Read,Read1,CIRCLE,DANCE,Study1,M,13,36,Study,User,-,,Study/JOL,"Study Phase",2145,,,-1,-1,,,,1
628e0063fa56e316da2a71cb,ioyds5n8e2,"Mediated Recall_Prolific",1,25,2023-02-05T23:53:46+00:00,2.2180008888245,1,versionA_stim.csv,ReadVersion.csv,Read,Read1,MULE,DONKEY,Study1,F,30,29,Study,User,-,,Study/JOL,"Study Phase",2045,,,-1,-1,,,,1
628e0063fa56e316da2a71cb,ioyds5n8e2,"Mediated Recall_Prolific",1,26,2023-02-05T23:53:48+00:00,1.8804121017456,1,versionA_stim.csv,ReadVersion.csv,Read,Read1,STRETCH,CLOTH,Study1,U,37,51,Study,User,-,,Study/JOL,"Study Phase",1733,,,-1,-1,,,,1
628e0063fa56e316da2a71cb,ioyds5n8e2,"Mediated Recall_Prolific",1,27,2023-02-05T23:53:49+00:00,1.7074539661407,1,versionA_stim.csv,ReadVersion.csv,Read,Read1,AFFECTION,LOVE,Study1,F,31,46,Study,User,-,,Study/JOL,"Study Phase",1555,,,-1,-1,,,,1
628e0063fa56e316da2a71cb,ioyds5n8e2,"Mediated Recall_Prolific",1,28,2023-02-05T23:53:51+00:00,1.7084059715271,1,versionA_stim.csv,ReadVersion.csv,Read,Read1,LITTER,TRASH,Study1,F,21,17,Study,User,-,,Study/JOL,"Study Phase",1561,,,-1,-1,,,,1
628e0063fa56e316da2a71cb,ioyds5n8e2,"Mediated Recall_Prolific",1,29,2023-02-05T23:53:53+00:00,1.8768091201782,1,versionA_stim.csv,ReadVersion.csv,Read,Read1,SIGN,TICK,Study1,U,47,39,Study,User,-,,Study/JOL,"Study Phase",1726,,,-1,-1,,,,1
628e0063fa56e316da2a71cb,ioyds5n8e2,"Mediated Recall_Prolific",1,30,2023-02-05T23:53:55+00:00,2.595223903656,1,versionA_stim.csv,ReadVersion.csv,Read,Read1,CEILING,CARPET,Study1,M,15,44,Study,User,-,,Study/JOL,"Study Phase",2443,,,-1,-1,,,,1
628e0063fa56e316da2a71cb,ioyds5n8e2,"Mediated Recall_Prolific",1,31,2023-02-05T23:53:57+00:00,1.7048840522766,1,versionA_stim.csv,ReadVersion.csv,Read,Read1,WORD,SENTENCE,Study1,F,27,27,Study,User,-,,Study/JOL,"Study Phase",1559,,,-1,-1,,,,1
628e0063fa56e316da2a71cb,ioyds5n8e2,"Mediated Recall_Prolific",1,32,2023-02-05T23:53:59+00:00,1.647570848465,1,versionA_stim.csv,ReadVersion.csv,Read,Read1,SOON,BELT,Study1,U,46,9,Study,User,-,,Study/JOL,"Study Phase",1497,,,-1,-1,,,,1
628e0063fa56e316da2a71cb,ioyds5n8e2,"Mediated Recall_Prolific",1,33,2023-02-05T23:54:01+00:00,1.7433271408081,1,versionA_stim.csv,ReadVersion.csv,Read,Read1,TOOTH,HAIR,Study1,M,19,14,Study,User,-,,Study/JOL,"Study Phase",1595,,,-1,-1,,,,1
628e0063fa56e316da2a71cb,ioyds5n8e2,"Mediated Recall_Prolific",1,34,2023-02-05T23:54:03+00:00,2.0480229854584,1,versionA_stim.csv,ReadVersion.csv,Read,Read1,DAY,DARK,Study1,M,18,8,Study,User,-,,Study/JOL,"Study Phase",1621,,,-1,-1,,,,1
628e0063fa56e316da2a71cb,ioyds5n8e2,"Mediated Recall_Prolific",1,35,2023-02-05T23:54:05+00:00,1.9157469272614,1,versionA_stim.csv,ReadVersion.csv,Read,Read1,WEDDING,FINGER,Study1,M,17,37,Study,User,-,,Study/JOL,"Study Phase",1765,,,-1,-1,,,,1
628e0063fa56e316da2a71cb,ioyds5n8e2,"Mediated Recall_Prolific",1,36,2023-02-05T23:54:06+00:00,1.7818319797516,1,versionA_stim.csv,ReadVersion.csv,Read,Read1,HARD,COTTON,Study1,M,20,13,Study,User,-,,Study/JOL,"Study Phase",1505,,,-1,-1,,,,1
628e0063fa56e316da2a71cb,ioyds5n8e2,"Mediated Recall_Prolific",1,37,2023-02-05T23:54:08+00:00,1.920058965683,1,versionA_stim.csv,ReadVersion.csv,Read,Read1,TREE,SYRUP,Study1,M,11,31,Study,User,-,,Study/JOL,"Study Phase",1773,,,-1,-1,,,,1
628e0063fa56e316da2a71cb,ioyds5n8e2,"Mediated Recall_Prolific",1,38,2023-02-05T23:54:10+00:00,1.6890540122986,1,versionA_stim.csv,ReadVersion.csv,Read,Read1,MAZE,PHONE,Study1,U,42,33,Study,User,-,,Study/JOL,"Study Phase",1536,,,-1,-1,,,,1
628e0063fa56e316da2a71cb,ioyds5n8e2,"Mediated Recall_Prolific",1,39,2023-02-05T23:54:12+00:00,2.0177161693573,1,versionA_stim.csv,ReadVersion.csv,Read,Read1,TEMPERATURE,MORNING,Study1,U,48,28,Study,User,-,,Study/JOL,"Study Phase",1864,,,-1,-1,,,,1
628e0063fa56e316da2a71cb,ioyds5n8e2,"Mediated Recall_Prolific",1,40,2023-02-05T23:54:14+00:00,1.6701648235321,1,versionA_stim.csv,ReadVersion.csv,Read,Read1,ROUGH,SILK,Study1,M,10,48,Study,User,-,,Study/JOL,"Study Phase",1496,,,-1,-1,,,,1
628e0063fa56e316da2a71cb,ioyds5n8e2,"Mediated Recall_Prolific",1,41,2023-02-05T23:54:16+00:00,2.4520330429077,1,versionA_stim.csv,ReadVersion.csv,Read,Read1,KEYS,ROD,Study1,U,45,26,Study,User,-,,Study/JOL,"Study Phase",2294,,,-1,-1,,,,1
628e0063fa56e316da2a71cb,ioyds5n8e2,"Mediated Recall_Prolific",1,42,2023-02-05T23:54:18+00:00,1.5382871627808,1,versionA_stim.csv,ReadVersion.csv,Read,Read1,SHELL,SHAKE,Study1,U,43,41,Study,User,-,,Study/JOL,"Study Phase",1390,,,-1,-1,,,,1
628e0063fa56e316da2a71cb,ioyds5n8e2,"Mediated Recall_Prolific",1,43,2023-02-05T23:54:19+00:00,1.4053559303284,1,versionA_stim.csv,ReadVersion.csv,Read,Read1,HYGIENE,CLEAN,Study1,F,28,47,Study,User,-,,Study/JOL,"Study Phase",1252,,,-1,-1,,,,1
628e0063fa56e316da2a71cb,ioyds5n8e2,"Mediated Recall_Prolific",1,44,2023-02-05T23:54:21+00:00,1.7431039810181,1,versionA_stim.csv,ReadVersion.csv,Read,Read1,MULE,DONKEY,Study1,F,24,40,Study,User,-,,Study/JOL,"Study Phase",1587,,,-1,-1,,,,1
628e0063fa56e316da2a71cb,ioyds5n8e2,"Mediated Recall_Prolific",1,45,2023-02-05T23:54:22+00:00,1.5588569641113,1,versionA_stim.csv,ReadVersion.csv,Read,Read1,LION,STRIPES,Study1,M,6,50,Study,User,-,,Study/JOL,"Study Phase",1406,,,-1,-1,,,,1
628e0063fa56e316da2a71cb,ioyds5n8e2,"Mediated Recall_Prolific",1,46,2023-02-05T23:54:24+00:00,1.7885799407959,1,versionA_stim.csv,ReadVersion.csv,Read,Read1,SCALP,HEAD,Study1,F,23,16,Study,User,-,,Study/JOL,"Study Phase",1643,,,-1,-1,,,,1
628e0063fa56e316da2a71cb,ioyds5n8e2,"Mediated Recall_Prolific",1,47,2023-02-05T23:54:25+00:00,1.3007361888885,1,versionA_stim.csv,ReadVersion.csv,Read,Read1,TUNA,FISH,Study1,F,35,42,Study,User,-,,Study/JOL,"Study Phase",1143,,,-1,-1,,,,1
628e0063fa56e316da2a71cb,ioyds5n8e2,"Mediated Recall_Prolific",1,48,2023-02-05T23:54:27+00:00,1.9555959701538,1,versionA_stim.csv,ReadVersion.csv,Read,Read1,VEHICLE,CHARM,Study1,U,40,45,Study,User,-,,Study/JOL,"Study Phase",1805,,,-1,-1,,,,1
628e0063fa56e316da2a71cb,ioyds5n8e2,"Mediated Recall_Prolific",1,49,2023-02-05T23:54:29+00:00,1.8142578601837,1,versionA_stim.csv,ReadVersion.csv,Read,Read1,MIRROR,MAROON,Study1,U,36,38,Study,User,-,,Study/JOL,"Study Phase",1660,,,-1,-1,,,,1
628e0063fa56e316da2a71cb,ioyds5n8e2,"Mediated Recall_Prolific",1,50,2023-02-05T23:54:31+00:00,1.7534830570221,1,versionA_stim.csv,ReadVersion.csv,Read,Read1,NAP,SLEEP,Study1,F,29,34,Study,User,-,,Study/JOL,"Study Phase",1609,,,-1,-1,,,,1
628e0063fa56e316da2a71cb,ioyds5n8e2,"Mediated Recall_Prolific",1,51,2023-02-05T23:54:33+00:00,1.6780409812927,1,versionA_stim.csv,ReadVersion.csv,Read,Read1,HORSE,WHEEL,Study1,M,14,15,Study,User,-,,Study/JOL,"Study Phase",1530,,,-1,-1,,,,1
628e0063fa56e316da2a71cb,ioyds5n8e2,"Mediated Recall_Prolific",1,52,2023-02-05T23:54:34+00:00,1.7167830467224,1,versionA_stim.csv,ReadVersion.csv,Read,Read1,ORCHID,FLOWER,Study1,F,34,20,Study,User,-,,Study/JOL,"Study Phase",1561,,,-1,-1,,,,1
628e0063fa56e316da2a71cb,ioyds5n8e2,"Mediated Recall_Prolific",1,53,2023-02-05T23:54:36+00:00,1.6948728561401,1,versionA_stim.csv,ReadVersion.csv,Read,Read1,TOOL,SHED,BUFFER3,Buffer,58,60,Study,User,-,,Study/JOL,BUFFER2,1542,,,-1,-1,,,,1
628e0063fa56e316da2a71cb,ioyds5n8e2,"Mediated Recall_Prolific",1,54,2023-02-05T23:54:38+00:00,1.7232830524445,1,versionA_stim.csv,ReadVersion.csv,Read,Read1,MALT,CHOCOLATE,BUFFER2,Buffer,53,53,Study,User,-,,Study/JOL,BUFFER2,1570,,,-1,-1,,,,1
628e0063fa56e316da2a71cb,ioyds5n8e2,"Mediated Recall_Prolific",1,55,2023-02-05T23:54:40+00:00,1.7923491001129,1,versionA_stim.csv,ReadVersion.csv,Read,Read1,MOON,SPACE,BUFFER2,Buffer,54,55,Study,User,-,,Study/JOL,BUFFER2,1637,,,-1,-1,,,,1
628e0063fa56e316da2a71cb,ioyds5n8e2,"Mediated Recall_Prolific",1,56,2023-02-05T23:54:42+00:00,2.9454898834229,1,versionA_stim.csv,ReadVersion.csv,Read,Read1,DAYS,WEAKS,BUFFER3,Buffer,56,61,Study,User,-,,Study/JOL,BUFFER2,2785,,,-1,-1,,,,1
628e0063fa56e316da2a71cb,ioyds5n8e2,"Mediated Recall_Prolific",1,57,2023-02-05T23:54:44+00:00,1.4523069858551,1,versionA_stim.csv,ReadVersion.csv,Read,Read1,THING,STUFF,BUFFER2,Buffer,55,56,Study,User,-,,Study/JOL,BUFFER2,1297,,,-1,-1,,,,1
628e0063fa56e316da2a71cb,ioyds5n8e2,"Mediated Recall_Prolific",1,58,2023-02-05T23:54:49+00:00,4.8845150470734,1,versionA_stim.csv,ReadVersion.csv,Read,Read1,,,,,,0,Instruct,User,-,"You have completed this section. Please press Enter.",Filler_Instruction,Instruct2,4715,,,-1,-1,,,,1
628e0063fa56e316da2a71cb,ioyds5n8e2,"Mediated Recall_Prolific",1,59,2023-02-05T23:56:49+00:00,120.27201199532,1,versionA_stim.csv,ReadVersion.csv,Read,Read1,,,,,,0,FreeRecall,120,120,"Please list the 50 US states in alphabetical order. The task will automatically advance to the next screen after two minutes.",,Filler1,120001,"Alabama Alaska Connecticut Delaware Florida Hawaii Illinois Georgia Louisiana Mississippi Montana Washington Wisconsin Wyoming ",0,13435,116643,0,0,,1
628e0063fa56e316da2a71cb,ioyds5n8e2,"Mediated Recall_Prolific",1,60,2023-02-05T23:57:01+00:00,12.1687541008,1,versionA_stim.csv,ReadVersion.csv,Read,Read1,,,,,,0,Instruct,-,10,"You will now be presented with the first word from each of the previously studied item pairs. Please type the missing word. If you do not know the word, you may guess or press Enter to skip forward to the next pair.",,Instruct3,11982,,,-1,-1,,,,1
628e0063fa56e316da2a71cb,ioyds5n8e2,"Mediated Recall_Prolific",1,61,2023-02-05T23:57:18+00:00,17.161521911621,1,versionA_stim.csv,ReadVersion.csv,Read,Read1,WORD,SENTENCE,Study1,F,27,27,Test,User,-,,Recall,Recall1,16999,PARAGRAPH,0,9591,16207,0,0,,1
628e0063fa56e316da2a71cb,ioyds5n8e2,"Mediated Recall_Prolific",1,62,2023-02-05T23:57:25+00:00,6.3141491413116,1,versionA_stim.csv,ReadVersion.csv,Read,Read1,VEHICLE,CHARM,Study1,U,40,45,Test,User,-,,Recall,Recall1,6151,,0,-1,-1,0,0,,1
628e0063fa56e316da2a71cb,ioyds5n8e2,"Mediated Recall_Prolific",1,63,2023-02-05T23:57:28+00:00,3.5032107830048,1,versionA_stim.csv,ReadVersion.csv,Read,Read1,CRY,BOTTLE,Study1,M,16,23,Test,User,-,,Recall,Recall1,3339,BOTTLE,100,2228,2931,1,1,,1
628e0063fa56e316da2a71cb,ioyds5n8e2,"Mediated Recall_Prolific",1,64,2023-02-05T23:57:32+00:00,3.4172651767731,1,versionA_stim.csv,ReadVersion.csv,Read,Read1,HORSE,WHEEL,Study1,M,14,15,Test,User,-,,Recall,Recall1,3269,WHEEL,100,2142,2757,1,1,,1
628e0063fa56e316da2a71cb,ioyds5n8e2,"Mediated Recall_Prolific",1,65,2023-02-05T23:57:38+00:00,6.5815238952637,1,versionA_stim.csv,ReadVersion.csv,Read,Read1,KEYS,ROD,Study1,U,45,26,Test,User,-,,Recall,Recall1,6427,MEAT,0,5611,5970,0,0,,1
628e0063fa56e316da2a71cb,ioyds5n8e2,"Mediated Recall_Prolific",1,66,2023-02-05T23:57:45+00:00,6.8102850914001,1,versionA_stim.csv,ReadVersion.csv,Read,Read1,CAKE,HAND,Study1,U,49,30,Test,User,-,,Recall,Recall1,6655,,0,-1,-1,0,0,,1
628e0063fa56e316da2a71cb,ioyds5n8e2,"Mediated Recall_Prolific",1,67,2023-02-05T23:57:49+00:00,3.7572689056396,1,versionA_stim.csv,ReadVersion.csv,Read,Read1,STRETCH,CLOTH,Study1,U,37,51,Test,User,-,,Recall,Recall1,3600,,0,-1,-1,0,0,,1
628e0063fa56e316da2a71cb,ioyds5n8e2,"Mediated Recall_Prolific",1,68,2023-02-05T23:57:55+00:00,6.5927560329437,1,versionA_stim.csv,ReadVersion.csv,Read,Read1,HYGIENE,CLEAN,Study1,F,28,47,Test,User,-,,Recall,Recall1,6433,TOOTHBRUSH,0,3745,5791,0,0,,1
628e0063fa56e316da2a71cb,ioyds5n8e2,"Mediated Recall_Prolific",1,69,2023-02-05T23:58:01+00:00,5.5017929077148,1,versionA_stim.csv,ReadVersion.csv,Read,Read1,SIP,DRINK,Study1,F,32,43,Test,User,-,,Recall,Recall1,5319,DRINK,100,4453,5053,1,1,,1
628e0063fa56e316da2a71cb,ioyds5n8e2,"Mediated Recall_Prolific",1,70,2023-02-05T23:58:06+00:00,5.4461500644684,1,versionA_stim.csv,ReadVersion.csv,Read,Read1,HARD,COTTON,Study1,M,20,13,Test,User,-,,Recall,Recall1,5291,COTTON,100,4198,4931,1,1,,1
628e0063fa56e316da2a71cb,ioyds5n8e2,"Mediated Recall_Prolific",1,71,2023-02-05T23:58:11+00:00,4.5195579528809,1,versionA_stim.csv,ReadVersion.csv,Read,Read1,DAY,DARK,Study1,M,18,8,Test,User,-,,Recall,Recall1,4361,WEAKS,44.444444444444,2722,3681,0,0,,1
628e0063fa56e316da2a71cb,ioyds5n8e2,"Mediated Recall_Prolific",1,72,2023-02-05T23:58:13+00:00,2.118940114975,1,versionA_stim.csv,ReadVersion.csv,Read,Read1,ORCHID,FLOWER,Study1,F,34,20,Test,User,-,,Recall,Recall1,1958,FLOWER,100,1222,1759,1,1,,1
628e0063fa56e316da2a71cb,ioyds5n8e2,"Mediated Recall_Prolific",1,73,2023-02-05T23:58:16+00:00,2.6073219776154,1,versionA_stim.csv,ReadVersion.csv,Read,Read1,LION,STRIPES,Study1,M,6,50,Test,User,-,,Recall,Recall1,2454,STRIPES,100,1456,2254,1,1,,1
628e0063fa56e316da2a71cb,ioyds5n8e2,"Mediated Recall_Prolific",1,74,2023-02-05T23:58:23+00:00,7.1999468803406,1,versionA_stim.csv,ReadVersion.csv,Read,Read1,TOOTH,HAIR,Study1,M,19,14,Test,User,-,,Recall,Recall1,7045,PASTE,22.222222222222,6204,6756,0,0,,1
628e0063fa56e316da2a71cb,ioyds5n8e2,"Mediated Recall_Prolific",1,75,2023-02-05T23:58:25+00:00,2.0054671764374,1,versionA_stim.csv,ReadVersion.csv,Read,Read1,GIVE,STEAK,Study1,U,38,24,Test,User,-,,Recall,Recall1,1844,,0,-1,-1,0,0,,1
628e0063fa56e316da2a71cb,ioyds5n8e2,"Mediated Recall_Prolific",1,76,2023-02-05T23:58:30+00:00,5.2639629840851,1,versionA_stim.csv,ReadVersion.csv,Read,Read1,TREE,SYRUP,Study1,M,11,31,Test,User,-,,Recall,Recall1,5106,FLOWER,18.181818181818,3161,4673,0,0,,1
628e0063fa56e316da2a71cb,ioyds5n8e2,"Mediated Recall_Prolific",1,77,2023-02-05T23:58:33+00:00,2.5635190010071,1,versionA_stim.csv,ReadVersion.csv,Read,Read1,MULE,DONKEY,Study1,F,30,29,Test,User,-,,Recall,Recall1,2406,DONKEY,100,1358,1925,1,1,,1
628e0063fa56e316da2a71cb,ioyds5n8e2,"Mediated Recall_Prolific",1,78,2023-02-05T23:58:39+00:00,6.318608045578,1,versionA_stim.csv,ReadVersion.csv,Read,Read1,TEMPERATURE,MORNING,Study1,U,48,28,Test,User,-,,Recall,Recall1,6158,WEATHER,14.285714285714,3463,5734,0,0,,1
628e0063fa56e316da2a71cb,ioyds5n8e2,"Mediated Recall_Prolific",1,79,2023-02-05T23:58:46+00:00,7.5354199409485,1,versionA_stim.csv,ReadVersion.csv,Read,Read1,ROOT,PLANT,Study1,F,25,7,Test,User,-,,Recall,Recall1,7378,FLOWER,18.181818181818,6178,6841,0,0,,1
628e0063fa56e316da2a71cb,ioyds5n8e2,"Mediated Recall_Prolific",1,80,2023-02-05T23:58:53+00:00,6.6322739124298,1,versionA_stim.csv,ReadVersion.csv,Read,Read1,LITTER,TRASH,Study1,F,21,17,Test,User,-,,Recall,Recall1,6474,,0,-1,-1,0,0,,1
628e0063fa56e316da2a71cb,ioyds5n8e2,"Mediated Recall_Prolific",1,81,2023-02-05T23:58:56+00:00,2.6246531009674,1,versionA_stim.csv,ReadVersion.csv,Read,Read1,LISTEN,FICTION,Study1,U,44,10,Test,User,-,,Recall,Recall1,2476,,0,-1,-1,0,0,,1
628e0063fa56e316da2a71cb,ioyds5n8e2,"Mediated Recall_Prolific",1,82,2023-02-05T23:59:00+00:00,4.1379170417786,1,versionA_stim.csv,ReadVersion.csv,Read,Read1,WAGE,MONEY,Study1,F,22,18,Test,User,-,,Recall,Recall1,3967,EARN,22.222222222222,2681,3081,0,0,,1
628e0063fa56e316da2a71cb,ioyds5n8e2,"Mediated Recall_Prolific",1,83,2023-02-05T23:59:03+00:00,3.5977048873901,1,versionA_stim.csv,ReadVersion.csv,Read,Read1,SOON,BELT,Study1,U,46,9,Test,User,-,,Recall,Recall1,3437,,0,-1,-1,0,0,,1
628e0063fa56e316da2a71cb,ioyds5n8e2,"Mediated Recall_Prolific",1,84,2023-02-05T23:59:09+00:00,5.7408781051636,1,versionA_stim.csv,ReadVersion.csv,Read,Read1,SCALP,HEAD,Study1,F,23,16,Test,User,-,,Recall,Recall1,5585,,0,-1,-1,0,0,,1
628e0063fa56e316da2a71cb,ioyds5n8e2,"Mediated Recall_Prolific",1,85,2023-02-05T23:59:16+00:00,7.1780118942261,1,versionA_stim.csv,ReadVersion.csv,Read,Read1,SIGN,TICK,Study1,U,47,39,Test,User,-,,Recall,Recall1,7019,LETTER,20,5803,6777,0,0,,1
628e0063fa56e316da2a71cb,ioyds5n8e2,"Mediated Recall_Prolific",1,86,2023-02-05T23:59:19+00:00,2.3698589801788,1,versionA_stim.csv,ReadVersion.csv,Read,Read1,NAP,SLEEP,Study1,F,29,34,Test,User,-,,Recall,Recall1,2216,SLEEP,100,1281,1808,1,1,,1
628e0063fa56e316da2a71cb,ioyds5n8e2,"Mediated Recall_Prolific",1,87,2023-02-05T23:59:23+00:00,3.9985699653625,1,versionA_stim.csv,ReadVersion.csv,Read,Read1,MAZE,PHONE,Study1,U,42,33,Test,User,-,,Recall,Recall1,3839,CORN,44.444444444444,3158,3544,0,0,,1
628e0063fa56e316da2a71cb,ioyds5n8e2,"Mediated Recall_Prolific",1,88,2023-02-05T23:59:28+00:00,5.636223077774,1,versionA_stim.csv,ReadVersion.csv,Read,Read1,CIRCLE,DANCE,Study1,M,13,36,Test,User,-,,Recall,Recall1,5484,WAGON,40,4772,5228,0,0,,1
628e0063fa56e316da2a71cb,ioyds5n8e2,"Mediated Recall_Prolific",1,89,2023-02-05T23:59:32+00:00,3.9485499858856,1,versionA_stim.csv,ReadVersion.csv,Read,Read1,CEILING,CARPET,Study1,M,15,44,Test,User,-,,Recall,Recall1,3795,CARPET,100,2428,3290,1,1,,1
628e0063fa56e316da2a71cb,ioyds5n8e2,"Mediated Recall_Prolific",1,90,2023-02-05T23:59:36+00:00,3.686399936676,1,versionA_stim.csv,ReadVersion.csv,Read,Read1,TUNA,FISH,Study1,F,35,42,Test,User,-,,Recall,Recall1,3527,FISH,100,2703,3017,1,1,,1
628e0063fa56e316da2a71cb,ioyds5n8e2,"Mediated Recall_Prolific",1,91,2023-02-05T23:59:43+00:00,7.161229133606,1,versionA_stim.csv,ReadVersion.csv,Read,Read1,CREDIT,CARD,Study1,F,33,49,Test,User,-,,Recall,Recall1,7005,CARD,100,6087,6718,1,1,,1
628e0063fa56e316da2a71cb,ioyds5n8e2,"Mediated Recall_Prolific",1,92,2023-02-05T23:59:51+00:00,7.6366288661957,1,versionA_stim.csv,ReadVersion.csv,Read,Read1,AFFECTION,LOVE,Study1,F,31,46,Test,User,-,,Recall,Recall1,7479,LOVE,100,6815,7239,1,1,,1
628e0063fa56e316da2a71cb,ioyds5n8e2,"Mediated Recall_Prolific",1,93,2023-02-05T23:59:58+00:00,7.64102602005,1,versionA_stim.csv,ReadVersion.csv,Read,Read1,SWAN,BIRD,Study1,F,26,21,Test,User,-,,Recall,Recall1,7483,LAKE,0,4909,7219,0,0,,1
628e0063fa56e316da2a71cb,ioyds5n8e2,"Mediated Recall_Prolific",1,94,2023-02-06T00:00:03+00:00,4.5847909450531,1,versionA_stim.csv,ReadVersion.csv,Read,Read1,SHELL,SHAKE,Study1,U,43,41,Test,User,-,,Recall,Recall1,4406,FISH,44.444444444444,3733,4097,0,0,,1
628e0063fa56e316da2a71cb,ioyds5n8e2,"Mediated Recall_Prolific",1,95,2023-02-06T00:00:25+00:00,21.478640079498,1,versionA_stim.csv,ReadVersion.csv,Read,Read1,CRACKLE,ELECTION,Study1,U,39,35,Test,User,-,,Recall,Recall1,21205,WAGON,30.769230769231,12998,20900,0,0,,1
628e0063fa56e316da2a71cb,ioyds5n8e2,"Mediated Recall_Prolific",1,96,2023-02-06T00:00:28+00:00,3.7732100486755,1,versionA_stim.csv,ReadVersion.csv,Read,Read1,BIRTHDAY,PIE,Study1,M,9,32,Test,User,-,,Recall,Recall1,3607,PIE,100,2983,3171,1,1,,1
628e0063fa56e316da2a71cb,ioyds5n8e2,"Mediated Recall_Prolific",1,97,2023-02-06T00:00:32+00:00,3.9293968677521,1,versionA_stim.csv,ReadVersion.csv,Read,Read1,ROUGH,SILK,Study1,M,10,48,Test,User,-,,Recall,Recall1,3778,SMOOTH,20,2808,3511,0,0,,1
628e0063fa56e316da2a71cb,ioyds5n8e2,"Mediated Recall_Prolific",1,98,2023-02-06T00:00:35+00:00,2.9651391506195,1,versionA_stim.csv,ReadVersion.csv,Read,Read1,WEDDING,FINGER,Study1,M,17,37,Test,User,-,,Recall,Recall1,2814,FINGER,100,1910,2518,1,1,,1
628e0063fa56e316da2a71cb,ioyds5n8e2,"Mediated Recall_Prolific",1,99,2023-02-06T00:01:10+00:00,35.097434997559,1,versionA_stim.csv,ReadVersion.csv,Read,Read1,BEACH,BOX,Study1,M,7,25,Test,User,-,,Recall,Recall1,34821,BAT,33.333333333333,33910,34324,0,0,,1
628e0063fa56e316da2a71cb,ioyds5n8e2,"Mediated Recall_Prolific",1,100,2023-02-06T00:01:23+00:00,13.155426979065,1,versionA_stim.csv,ReadVersion.csv,Read,Read1,FUZZY,BANG,Study1,U,50,22,Test,User,-,,Recall,Recall1,12971,PEACH,22.222222222222,12141,12757,0,0,,1
628e0063fa56e316da2a71cb,ioyds5n8e2,"Mediated Recall_Prolific",1,101,2023-02-06T00:01:28+00:00,4.0690219402313,1,versionA_stim.csv,ReadVersion.csv,Read,Read1,WAR,QUIET,Study1,M,8,11,Test,User,-,,Recall,Recall1,3909,QUIET,100,2183,3511,1,1,,1
628e0063fa56e316da2a71cb,ioyds5n8e2,"Mediated Recall_Prolific",1,102,2023-02-06T00:01:30+00:00,2.2787489891052,1,versionA_stim.csv,ReadVersion.csv,Read,Read1,MULE,DONKEY,Study1,F,24,40,Test,User,-,,Recall,Recall1,2119,DONKEY,100,1247,1765,1,1,,1
628e0063fa56e316da2a71cb,ioyds5n8e2,"Mediated Recall_Prolific",1,103,2023-02-06T00:01:36+00:00,6.434504032135,1,versionA_stim.csv,ReadVersion.csv,Read,Read1,MIRROR,MAROON,Study1,U,36,38,Test,User,-,,Recall,Recall1,6282,,0,-1,-1,0,0,,1
628e0063fa56e316da2a71cb,ioyds5n8e2,"Mediated Recall_Prolific",1,104,2023-02-06T00:01:44+00:00,8.0491099357605,1,versionA_stim.csv,ReadVersion.csv,Read,Read1,MEAT,KEYS,Study1,U,41,12,Test,User,-,,Recall,Recall1,7889,KEYS,100,4394,4906,1,1,,1
628e0063fa56e316da2a71cb,ioyds5n8e2,"Mediated Recall_Prolific",1,105,2023-02-06T00:01:48+00:00,3.5321850776672,1,versionA_stim.csv,ReadVersion.csv,Read,Read1,BAT,BOUNCE,Study1,M,12,19,Test,User,-,,Recall,Recall1,3378,BALL,20,2697,3153,0,0,,1
628e0063fa56e316da2a71cb,ioyds5n8e2,"Mediated Recall_Prolific",1,106,2023-02-06T00:02:46+00:00,57.963679075241,1,versionA_stim.csv,ReadVersion.csv,Read,Read1,,,,,,0,Instruct,-,10,"You will now be presented with a new set of word pairs. Please study each pair. Remember that your memory will be tested! When finished, press Enter to move to the next pair.",Initial_Instruct,Instruct4,57694,,,-1,-1,,,,1
628e0063fa56e316da2a71cb,ioyds5n8e2,"Mediated Recall_Prolific",1,107,2023-02-06T00:02:49+00:00,2.9860060214996,1,versionA_stim.csv,ReadVersion.csv,Read,Read1,,,,,,0,Instruct,User,-,"Press Enter when you are readty to begin",,Instruct11,2750,,,-1,-1,,,,1
628e0063fa56e316da2a71cb,ioyds5n8e2,"Mediated Recall_Prolific",1,108,2023-02-06T00:02:52+00:00,3.5814249515533,1,versionA_stim.csv,ReadVersion.csv,Read,Read1,SHRIMP,FISH,BUFFER4,Buffer,108,111,Study,User,-,,Study/JOL,BUFFER2,3425,,,-1,-1,,,,1
628e0063fa56e316da2a71cb,ioyds5n8e2,"Mediated Recall_Prolific",1,109,2023-02-06T00:02:55+00:00,2.3237080574036,1,versionA_stim.csv,ReadVersion.csv,Read,Read1,MONTH,YEAR,BUFFER3,Buffer,57,57,Study,User,-,,Study/JOL,BUFFER2,2170,,,-1,-1,,,,1
628e0063fa56e316da2a71cb,ioyds5n8e2,"Mediated Recall_Prolific",1,110,2023-02-06T00:02:58+00:00,3.5932219028473,1,versionA_stim.csv,ReadVersion.csv,Read,Read1,ICE,FROZEN,BUFFER4,Buffer,109,109,Study,User,-,,Study/JOL,BUFFER2,3436,,,-1,-1,,,,1
628e0063fa56e316da2a71cb,ioyds5n8e2,"Mediated Recall_Prolific",1,111,2023-02-06T00:03:00+00:00,2.1790471076965,1,versionA_stim.csv,ReadVersion.csv,Read,Read1,CAMP,ADVENTURE,BUFFER4,Buffer,110,107,Study,User,-,,Study/JOL,BUFFER2,2021,,,-1,-1,,,,1
628e0063fa56e316da2a71cb,ioyds5n8e2,"Mediated Recall_Prolific",1,112,2023-02-06T00:03:04+00:00,3.2061769962311,1,versionA_stim.csv,ReadVersion.csv,Read,Read1,OCTOBER,SPOOKY,BUFFER3,Buffer,60,58,Study,User,-,,Study/JOL,BUFFER2,3052,,,-1,-1,,,,1
628e0063fa56e316da2a71cb,ioyds5n8e2,"Mediated Recall_Prolific",1,113,2023-02-06T00:03:07+00:00,3.0803170204163,1,versionA_stim.csv,ReadVersion.csv,Read,Read1,STRONG,ACCIDENT,Study2,U,94,83,Study,User,-,,Study/JOL,"Study Phase2",2916,,,-1,-1,,,,1
628e0063fa56e316da2a71cb,ioyds5n8e2,"Mediated Recall_Prolific",1,114,2023-02-06T00:03:10+00:00,3.2173337936401,1,versionA_stim.csv,ReadVersion.csv,Read,Read1,DIETARY,SACK,Study2,U,97,105,Study,User,-,,Study/JOL,"Study Phase2",3057,,,-1,-1,,,,1
628e0063fa56e316da2a71cb,ioyds5n8e2,"Mediated Recall_Prolific",1,115,2023-02-06T00:03:12+00:00,2.5433990955353,1,versionA_stim.csv,ReadVersion.csv,Read,Read1,REALITY,ISLAND,Study2,M,64,89,Study,User,-,,Study/JOL,"Study Phase2",2392,,,-1,-1,,,,1
628e0063fa56e316da2a71cb,ioyds5n8e2,"Mediated Recall_Prolific",1,116,2023-02-06T00:03:17+00:00,4.7699460983276,1,versionA_stim.csv,ReadVersion.csv,Read,Read1,KING,VASE,Study2,U,91,96,Study,User,-,,Study/JOL,"Study Phase2",4603,,,-1,-1,,,,1
628e0063fa56e316da2a71cb,ioyds5n8e2,"Mediated Recall_Prolific",1,117,2023-02-06T00:03:21+00:00,3.657262802124,1,versionA_stim.csv,ReadVersion.csv,Read,Read1,SUGAR,RIDDLE,Study2,U,95,70,Study,User,-,,Study/JOL,"Study Phase2",3506,,,-1,-1,,,,1
628e0063fa56e316da2a71cb,ioyds5n8e2,"Mediated Recall_Prolific",1,118,2023-02-06T00:03:24+00:00,2.7427670955658,1,versionA_stim.csv,ReadVersion.csv,Read,Read1,TRAP,CAVE,Study2,M,70,99,Study,User,-,,Study/JOL,"Study Phase2",2594,,,-1,-1,,,,1
628e0063fa56e316da2a71cb,ioyds5n8e2,"Mediated Recall_Prolific",1,119,2023-02-06T00:03:28+00:00,4.4565889835358,1,versionA_stim.csv,ReadVersion.csv,Read,Read1,ART,WOLF,Study2,U,93,87,Study,User,-,,Study/JOL,"Study Phase2",4307,,,-1,-1,,,,1
628e0063fa56e316da2a71cb,ioyds5n8e2,"Mediated Recall_Prolific",1,120,2023-02-06T00:03:32+00:00,3.4950001239777,1,versionA_stim.csv,ReadVersion.csv,Read,Read1,HEAVY,FEATHER,Study2,M,68,62,Study,User,-,,Study/JOL,"Study Phase2",3340,,,-1,-1,,,,1
628e0063fa56e316da2a71cb,ioyds5n8e2,"Mediated Recall_Prolific",1,121,2023-02-06T00:03:34+00:00,2.4035859107971,1,versionA_stim.csv,ReadVersion.csv,Read,Read1,HERD,COW,Study2,F,88,69,Study,User,-,,Study/JOL,"Study Phase2",2245,,,-1,-1,,,,1
628e0063fa56e316da2a71cb,ioyds5n8e2,"Mediated Recall_Prolific",1,122,2023-02-06T00:03:37+00:00,3.3753759860992,1,versionA_stim.csv,ReadVersion.csv,Read,Read1,FEUD,FIGHT,Study2,F,86,91,Study,User,-,,Study/JOL,"Study Phase2",3224,,,-1,-1,,,,1
628e0063fa56e316da2a71cb,ioyds5n8e2,"Mediated Recall_Prolific",1,123,2023-02-06T00:03:45+00:00,7.4026498794556,1,versionA_stim.csv,ReadVersion.csv,Read,Read1,BOTH,OUNCE,Study2,U,102,80,Study,User,-,,Study/JOL,"Study Phase2",7246,,,-1,-1,,,,1
628e0063fa56e316da2a71cb,ioyds5n8e2,"Mediated Recall_Prolific",1,124,2023-02-06T00:03:49+00:00,4.6769001483917,1,versionA_stim.csv,ReadVersion.csv,Read,Read1,SOAP,DRINK,Study2,M,67,82,Study,User,-,,Study/JOL,"Study Phase2",4520,,,-1,-1,,,,1
628e0063fa56e316da2a71cb,ioyds5n8e2,"Mediated Recall_Prolific",1,125,2023-02-06T00:03:53+00:00,3.6628329753876,1,versionA_stim.csv,ReadVersion.csv,Read,Read1,RAKE,SEED,Study2,M,69,92,Study,User,-,,Study/JOL,"Study Phase2",3489,,,-1,-1,,,,1
628e0063fa56e316da2a71cb,ioyds5n8e2,"Mediated Recall_Prolific",1,126,2023-02-06T00:03:58+00:00,4.7041568756104,1,versionA_stim.csv,ReadVersion.csv,Read,Read1,BRIDGE,WATER,Study2,F,90,66,Study,User,-,,Study/JOL,"Study Phase2",4555,,,-1,-1,,,,1
628e0063fa56e316da2a71cb,ioyds5n8e2,"Mediated Recall_Prolific",1,127,2023-02-06T00:04:03+00:00,4.7574322223663,1,versionA_stim.csv,ReadVersion.csv,Read,Read1,EYES,SMELL,Study2,M,65,86,Study,User,-,,Study/JOL,"Study Phase2",4606,,,-1,-1,,,,1
628e0063fa56e316da2a71cb,ioyds5n8e2,"Mediated Recall_Prolific",1,128,2023-02-06T00:04:06+00:00,3.1428778171539,1,versionA_stim.csv,ReadVersion.csv,Read,Read1,CHISEL,HAMMER,Study2,F,78,71,Study,User,-,,Study/JOL,"Study Phase2",2990,,,-1,-1,,,,1
628e0063fa56e316da2a71cb,ioyds5n8e2,"Mediated Recall_Prolific",1,129,2023-02-06T00:04:09+00:00,2.9554469585419,1,versionA_stim.csv,ReadVersion.csv,Read,Read1,LEAGUE,BASEBALL,Study2,F,84,78,Study,User,-,,Study/JOL,"Study Phase2",2801,,,-1,-1,,,,1
628e0063fa56e316da2a71cb,ioyds5n8e2,"Mediated Recall_Prolific",1,130,2023-02-06T00:04:13+00:00,3.8870530128479,1,versionA_stim.csv,ReadVersion.csv,Read,Read1,WASP,BUG,Study2,F,89,73,Study,User,-,,Study/JOL,"Study Phase2",3728,,,-1,-1,,,,1
628e0063fa56e316da2a71cb,ioyds5n8e2,"Mediated Recall_Prolific",1,131,2023-02-06T00:04:16+00:00,3.6155920028687,1,versionA_stim.csv,ReadVersion.csv,Read,Read1,LEASE,TOIL,Study2,U,101,95,Study,User,-,,Study/JOL,"Study Phase2",3469,,,-1,-1,,,,1
628e0063fa56e316da2a71cb,ioyds5n8e2,"Mediated Recall_Prolific",1,132,2023-02-06T00:04:18+00:00,1.9978380203247,1,versionA_stim.csv,ReadVersion.csv,Read,Read1,BENCH,HORN,Study2,U,98,94,Study,User,-,,Study/JOL,"Study Phase2",1841,,,-1,-1,,,,1
628e0063fa56e316da2a71cb,ioyds5n8e2,"Mediated Recall_Prolific",1,133,2023-02-06T00:04:20+00:00,1.8975660800934,1,versionA_stim.csv,ReadVersion.csv,Read,Read1,GRILL,THIGH,Study2,M,72,65,Study,User,-,,Study/JOL,"Study Phase2",1741,,,-1,-1,,,,1
628e0063fa56e316da2a71cb,ioyds5n8e2,"Mediated Recall_Prolific",1,134,2023-02-06T00:04:24+00:00,3.4621438980103,1,versionA_stim.csv,ReadVersion.csv,Read,Read1,HORNET,STING,Study2,F,85,97,Study,User,-,,Study/JOL,"Study Phase2",3308,,,-1,-1,,,,1
628e0063fa56e316da2a71cb,ioyds5n8e2,"Mediated Recall_Prolific",1,135,2023-02-06T00:04:28+00:00,4.3195440769196,1,versionA_stim.csv,ReadVersion.csv,Read,Read1,SUMMER,SNOW,Study2,M,61,100,Study,User,-,,Study/JOL,"Study Phase2",4161,,,-1,-1,,,,1
628e0063fa56e316da2a71cb,ioyds5n8e2,"Mediated Recall_Prolific",1,136,2023-02-06T00:04:31+00:00,3.2220120429993,1,versionA_stim.csv,ReadVersion.csv,Read,Read1,VALLEY,PEAK,Study2,M,73,102,Study,User,-,,Study/JOL,"Study Phase2",3064,,,-1,-1,,,,1
628e0063fa56e316da2a71cb,ioyds5n8e2,"Mediated Recall_Prolific",1,137,2023-02-06T00:04:35+00:00,3.4958159923553,1,versionA_stim.csv,ReadVersion.csv,Read,Read1,SCHOOL,STOP,Study2,M,62,81,Study,User,-,,Study/JOL,"Study Phase2",3344,,,-1,-1,,,,1
628e0063fa56e316da2a71cb,ioyds5n8e2,"Mediated Recall_Prolific",1,138,2023-02-06T00:04:38+00:00,3.3193030357361,1,versionA_stim.csv,ReadVersion.csv,Read,Read1,CASH,LEG,Study2,U,105,93,Study,User,-,,Study/JOL,"Study Phase2",3163,,,-1,-1,,,,1
628e0063fa56e316da2a71cb,ioyds5n8e2,"Mediated Recall_Prolific",1,139,2023-02-06T00:04:41+00:00,2.9106709957123,1,versionA_stim.csv,ReadVersion.csv,Read,Read1,HAPPY,CAR,Study2,U,92,75,Study,User,-,,Study/JOL,"Study Phase2",2760,,,-1,-1,,,,1
628e0063fa56e316da2a71cb,ioyds5n8e2,"Mediated Recall_Prolific",1,140,2023-02-06T00:04:44+00:00,2.9106850624084,1,versionA_stim.csv,ReadVersion.csv,Read,Read1,CHOP,CUT,Study2,F,77,67,Study,User,-,,Study/JOL,"Study Phase2",2756,,,-1,-1,,,,1
628e0063fa56e316da2a71cb,ioyds5n8e2,"Mediated Recall_Prolific",1,141,2023-02-06T00:04:47+00:00,3.4260919094086,1,versionA_stim.csv,ReadVersion.csv,Read,Read1,DOCUMENT,PAPER,Study2,F,82,79,Study,User,-,,Study/JOL,"Study Phase2",3271,,,-1,-1,,,,1
628e0063fa56e316da2a71cb,ioyds5n8e2,"Mediated Recall_Prolific",1,142,2023-02-06T00:04:50+00:00,2.407830953598,1,versionA_stim.csv,ReadVersion.csv,Read,Read1,PUSH,CLUTTER,Study2,U,96,74,Study,User,-,,Study/JOL,"Study Phase2",2249,,,-1,-1,,,,1
628e0063fa56e316da2a71cb,ioyds5n8e2,"Mediated Recall_Prolific",1,143,2023-02-06T00:04:55+00:00,5.5937669277191,1,versionA_stim.csv,ReadVersion.csv,Read,Read1,INCENSE,SMELL,Study2,F,83,72,Study,User,-,,Study/JOL,"Study Phase2",5418,,,-1,-1,,,,1
628e0063fa56e316da2a71cb,ioyds5n8e2,"Mediated Recall_Prolific",1,144,2023-02-06T00:04:58+00:00,2.7136650085449,1,versionA_stim.csv,ReadVersion.csv,Read,Read1,DEATH,BUSINESS,Study2,U,99,104,Study,User,-,,Study/JOL,"Study Phase2",2555,,,-1,-1,,,,1
628e0063fa56e316da2a71cb,ioyds5n8e2,"Mediated Recall_Prolific",1,145,2023-02-06T00:05:00+00:00,2.3156731128693,1,versionA_stim.csv,ReadVersion.csv,Read,Read1,CHERRY,RED,Study2,F,80,106,Study,User,-,,Study/JOL,"Study Phase2",2162,,,-1,-1,,,,1
628e0063fa56e316da2a71cb,ioyds5n8e2,"Mediated Recall_Prolific",1,146,2023-02-06T00:05:03+00:00,2.8068399429321,1,versionA_stim.csv,ReadVersion.csv,Read,Read1,NURSE,LAWYER,Study2,M,66,90,Study,User,-,,Study/JOL,"Study Phase2",2654,,,-1,-1,,,,1
628e0063fa56e316da2a71cb,ioyds5n8e2,"Mediated Recall_Prolific",1,147,2023-02-06T00:05:08+00:00,5.0481860637665,1,versionA_stim.csv,ReadVersion.csv,Read,Read1,ARTERY,BRONZE,Study2,U,103,76,Study,User,-,,Study/JOL,"Study Phase2",4902,,,-1,-1,,,,1
628e0063fa56e316da2a71cb,ioyds5n8e2,"Mediated Recall_Prolific",1,148,2023-02-06T00:05:11+00:00,3.2897720336914,1,versionA_stim.csv,ReadVersion.csv,Read,Read1,OVEN,BASKET,Study2,M,71,103,Study,User,-,,Study/JOL,"Study Phase2",3140,,,-1,-1,,,,1
628e0063fa56e316da2a71cb,ioyds5n8e2,"Mediated Recall_Prolific",1,149,2023-02-06T00:05:14+00:00,2.8934049606323,1,versionA_stim.csv,ReadVersion.csv,Read,Read1,CACTUS,PLANT,Study2,F,76,64,Study,User,-,,Study/JOL,"Study Phase2",2742,,,-1,-1,,,,1
628e0063fa56e316da2a71cb,ioyds5n8e2,"Mediated Recall_Prolific",1,150,2023-02-06T00:05:19+00:00,4.5593779087067,1,versionA_stim.csv,ReadVersion.csv,Read,Read1,WINDOW,KNOB,Study2,M,74,63,Study,User,-,,Study/JOL,"Study Phase2",4401,,,-1,-1,,,,1
628e0063fa56e316da2a71cb,ioyds5n8e2,"Mediated Recall_Prolific",1,151,2023-02-06T00:05:21+00:00,2.1986110210419,1,versionA_stim.csv,ReadVersion.csv,Read,Read1,CHILL,COLD,Study2,F,87,88,Study,User,-,,Study/JOL,"Study Phase2",2045,,,-1,-1,,,,1
628e0063fa56e316da2a71cb,ioyds5n8e2,"Mediated Recall_Prolific",1,152,2023-02-06T00:05:23+00:00,2.1588599681854,1,versionA_stim.csv,ReadVersion.csv,Read,Read1,BLAZE,FIRE,Study2,F,81,84,Study,User,-,,Study/JOL,"Study Phase2",2005,,,-1,-1,,,,1
628e0063fa56e316da2a71cb,ioyds5n8e2,"Mediated Recall_Prolific",1,153,2023-02-06T00:05:26+00:00,2.6755039691925,1,versionA_stim.csv,ReadVersion.csv,Read,Read1,MIRROR,CHILDREN,Study2,U,104,68,Study,User,-,,Study/JOL,"Study Phase2",2525,,,-1,-1,,,,1
628e0063fa56e316da2a71cb,ioyds5n8e2,"Mediated Recall_Prolific",1,154,2023-02-06T00:05:28+00:00,2.1102230548859,1,versionA_stim.csv,ReadVersion.csv,Read,Read1,ATTIRE,CLOTHES,Study2,F,79,98,Study,User,-,,Study/JOL,"Study Phase2",1957,,,-1,-1,,,,1
628e0063fa56e316da2a71cb,ioyds5n8e2,"Mediated Recall_Prolific",1,155,2023-02-06T00:05:32+00:00,4.4015321731567,1,versionA_stim.csv,ReadVersion.csv,Read,Read1,RAZOR,MUSCLE,Study2,M,75,85,Study,User,-,,Study/JOL,"Study Phase2",4254,,,-1,-1,,,,1
628e0063fa56e316da2a71cb,ioyds5n8e2,"Mediated Recall_Prolific",1,156,2023-02-06T00:05:35+00:00,2.4158248901367,1,versionA_stim.csv,ReadVersion.csv,Read,Read1,SICK,HIDE,Study2,U,100,101,Study,User,-,,Study/JOL,"Study Phase2",2263,,,-1,-1,,,,1
628e0063fa56e316da2a71cb,ioyds5n8e2,"Mediated Recall_Prolific",1,157,2023-02-06T00:05:37+00:00,2.5433421134949,1,versionA_stim.csv,ReadVersion.csv,Read,Read1,PANTS,COLLAR,Study2,M,63,77,Study,User,-,,Study/JOL,"Study Phase2",2390,,,-1,-1,,,,1
628e0063fa56e316da2a71cb,ioyds5n8e2,"Mediated Recall_Prolific",1,158,2023-02-06T00:05:39+00:00,2.0874059200287,1,versionA_stim.csv,ReadVersion.csv,Read,Read1,SPRING,MARCH,BUFFER3,Buffer,59,59,Study,User,-,,Study/JOL,BUFFER2,1928,,,-1,-1,,,,1
628e0063fa56e316da2a71cb,ioyds5n8e2,"Mediated Recall_Prolific",1,159,2023-02-06T00:05:41+00:00,1.5798509120941,1,versionA_stim.csv,ReadVersion.csv,Read,Read1,NOODLE,STRING,BUFFER4,Buffer,107,110,Study,User,-,,Study/JOL,BUFFER2,1426,,,-1,-1,,,,1
628e0063fa56e316da2a71cb,ioyds5n8e2,"Mediated Recall_Prolific",1,160,2023-02-06T00:05:44+00:00,2.5830340385437,1,versionA_stim.csv,ReadVersion.csv,Read,Read1,CARROT,POTATO,BUFFER4,Buffer,106,108,Study,User,-,,Study/JOL,BUFFER2,2431,,,-1,-1,,,,1
628e0063fa56e316da2a71cb,ioyds5n8e2,"Mediated Recall_Prolific",1,161,2023-02-06T00:05:46+00:00,2.1445529460907,1,versionA_stim.csv,ReadVersion.csv,Read,Read1,GEESE,GOOSE,BUFFER2,Buffer,51,54,Study,User,-,,Study/JOL,BUFFER2,1983,,,-1,-1,,,,1
628e0063fa56e316da2a71cb,ioyds5n8e2,"Mediated Recall_Prolific",1,162,2023-02-06T00:05:49+00:00,3.1322801113129,1,versionA_stim.csv,ReadVersion.csv,Read,Read1,SHERRIF,POLICE,BUFFER2,Buffer,52,52,Study,User,-,,Study/JOL,BUFFER2,2975,,,-1,-1,,,,1
628e0063fa56e316da2a71cb,ioyds5n8e2,"Mediated Recall_Prolific",1,163,2023-02-06T00:05:52+00:00,2.811872959137,1,versionA_stim.csv,ReadVersion.csv,Read,Read1,,,,,,0,Instruct,User,-,"You have completed this section. Please press Enter.",Filler_Instruction,Instruct2,2657,,,-1,-1,,,,1
628e0063fa56e316da2a71cb,ioyds5n8e2,"Mediated Recall_Prolific",1,164,2023-02-06T00:07:52+00:00,120.29334592819,1,versionA_stim.csv,ReadVersion.csv,Read,Read1,,,,,,0,FreeRecall,120,120,"Please list the 50 US states in alphabetical order. The task will automatically advance to the next screen after two minutes.",,Filler1,120000,"Alabama Alaska Arkansas Colorado Connecticut Delaware Florida Illinois Hawaii Georgia Louisiana Michigan Minnesota Mississippi Missouri New Hampshire ",0,6436,119267,0,0,,1
628e0063fa56e316da2a71cb,ioyds5n8e2,"Mediated Recall_Prolific",1,165,2023-02-06T00:08:04+00:00,12.376703977585,1,versionA_stim.csv,ReadVersion.csv,Read,Read1,,,,,,0,Instruct,-,10,"You will now be presented with the first word from each of the previously studied item pairs. Please type the missing word. If you do not know the word, you may guess or press Enter to skip forward to the next pair.",,Instruct3,12192,,,-1,-1,,,,1
628e0063fa56e316da2a71cb,ioyds5n8e2,"Mediated Recall_Prolific",1,166,2023-02-06T00:08:09+00:00,4.9117710590363,1,versionA_stim.csv,ReadVersion.csv,Read,Read1,REALITY,ISLAND,Study2,M,64,89,Test,User,-,,Recall,Recall2,4754,,0,-1,-1,0,0,,1
628e0063fa56e316da2a71cb,ioyds5n8e2,"Mediated Recall_Prolific",1,167,2023-02-06T00:08:14+00:00,4.8148300647736,1,versionA_stim.csv,ReadVersion.csv,Read,Read1,MIRROR,CHILDREN,Study2,U,104,68,Test,User,-,,Recall,Recall2,4648,CHILDREN,100,2840,4063,1,1,,1
628e0063fa56e316da2a71cb,ioyds5n8e2,"Mediated Recall_Prolific",1,168,2023-02-06T00:08:28+00:00,14.096551895142,1,versionA_stim.csv,ReadVersion.csv,Read,Read1,EYES,SMELL,Study2,M,65,86,Test,User,-,,Recall,Recall2,13818,SMELL,100,2361,2969,1,1,,1
628e0063fa56e316da2a71cb,ioyds5n8e2,"Mediated Recall_Prolific",1,169,2023-02-06T00:08:31+00:00,3.2403211593628,1,versionA_stim.csv,ReadVersion.csv,Read,Read1,BRIDGE,WATER,Study2,F,90,66,Test,User,-,,Recall,Recall2,3082,WATER,100,1921,2825,1,1,,1
628e0063fa56e316da2a71cb,ioyds5n8e2,"Mediated Recall_Prolific",1,170,2023-02-06T00:08:34+00:00,3.0864229202271,1,versionA_stim.csv,ReadVersion.csv,Read,Read1,CHILL,COLD,Study2,F,87,88,Test,User,-,,Recall,Recall2,2925,COLD,100,2157,2573,1,1,,1
628e0063fa56e316da2a71cb,ioyds5n8e2,"Mediated Recall_Prolific",1,171,2023-02-06T00:08:40+00:00,5.1234810352325,1,versionA_stim.csv,ReadVersion.csv,Read,Read1,SOAP,DRINK,Study2,M,67,82,Test,User,-,,Recall,Recall2,4958,DRINK,100,3796,4388,1,1,,1
628e0063fa56e316da2a71cb,ioyds5n8e2,"Mediated Recall_Prolific",1,172,2023-02-06T00:08:44+00:00,4.0408079624176,1,versionA_stim.csv,ReadVersion.csv,Read,Read1,KING,VASE,Study2,U,91,96,Test,User,-,,Recall,Recall2,3883,OPERA,22.222222222222,2683,3587,0,0,,1
628e0063fa56e316da2a71cb,ioyds5n8e2,"Mediated Recall_Prolific",1,173,2023-02-06T00:08:52+00:00,7.9003570079803,1,versionA_stim.csv,ReadVersion.csv,Read,Read1,SUGAR,RIDDLE,Study2,U,95,70,Test,User,-,,Recall,Recall2,7726,,0,-1,-1,0,0,,1
628e0063fa56e316da2a71cb,ioyds5n8e2,"Mediated Recall_Prolific",1,174,2023-02-06T00:08:55+00:00,3.3622570037842,1,versionA_stim.csv,ReadVersion.csv,Read,Read1,LEAGUE,BASEBALL,Study2,F,84,78,Test,User,-,,Recall,Recall2,3195,BASEBALL,100,1379,2746,1,1,,1
628e0063fa56e316da2a71cb,ioyds5n8e2,"Mediated Recall_Prolific",1,175,2023-02-06T00:09:00+00:00,4.6455600261688,1,versionA_stim.csv,ReadVersion.csv,Read,Read1,WASP,BUG,Study2,F,89,73,Test,User,-,,Recall,Recall2,4459,BUG,100,3195,3322,1,1,,1
628e0063fa56e316da2a71cb,ioyds5n8e2,"Mediated Recall_Prolific",1,176,2023-02-06T00:09:02+00:00,2.8953659534454,1,versionA_stim.csv,ReadVersion.csv,Read,Read1,ARTERY,BRONZE,Study2,U,103,76,Test,User,-,,Recall,Recall2,2745,BRONZE,100,1513,2489,1,1,,1
628e0063fa56e316da2a71cb,ioyds5n8e2,"Mediated Recall_Prolific",1,177,2023-02-06T00:09:07+00:00,4.7838180065155,1,versionA_stim.csv,ReadVersion.csv,Read,Read1,RAZOR,MUSCLE,Study2,M,75,85,Test,User,-,,Recall,Recall2,4634,MUSCLE,100,3385,4305,1,1,,1
628e0063fa56e316da2a71cb,ioyds5n8e2,"Mediated Recall_Prolific",1,178,2023-02-06T00:09:14+00:00,7.147029876709,1,versionA_stim.csv,ReadVersion.csv,Read,Read1,SUMMER,SNOW,Study2,M,61,100,Test,User,-,,Recall,Recall2,6881,SNOW,100,6136,6496,1,1,,1
628e0063fa56e316da2a71cb,ioyds5n8e2,"Mediated Recall_Prolific",1,179,2023-02-06T00:09:20+00:00,5.7396600246429,1,versionA_stim.csv,ReadVersion.csv,Read,Read1,SCHOOL,STOP,Study2,M,62,81,Test,User,-,,Recall,Recall2,5568,,0,-1,-1,0,0,,1
628e0063fa56e316da2a71cb,ioyds5n8e2,"Mediated Recall_Prolific",1,180,2023-02-06T00:09:33+00:00,12.816727161407,1,versionA_stim.csv,ReadVersion.csv,Read,Read1,SICK,HIDE,Study2,U,100,101,Test,User,-,,Recall,Recall2,12647,SIZE,50,11278,12286,0,0,,1
628e0063fa56e316da2a71cb,ioyds5n8e2,"Mediated Recall_Prolific",1,181,2023-02-06T00:09:39+00:00,6.4055759906769,1,versionA_stim.csv,ReadVersion.csv,Read,Read1,CHOP,CUT,Study2,F,77,67,Test,User,-,,Recall,Recall2,6246,,0,-1,-1,0,0,,1
628e0063fa56e316da2a71cb,ioyds5n8e2,"Mediated Recall_Prolific",1,182,2023-02-06T00:09:45+00:00,5.6065800189972,1,versionA_stim.csv,ReadVersion.csv,Read,Read1,VALLEY,PEAK,Study2,M,73,102,Test,User,-,,Recall,Recall2,5444,PEAK,100,4644,5099,1,1,,1
628e0063fa56e316da2a71cb,ioyds5n8e2,"Mediated Recall_Prolific",1,183,2023-02-06T00:09:52+00:00,7.4248728752136,1,versionA_stim.csv,ReadVersion.csv,Read,Read1,BENCH,HORN,Study2,U,98,94,Test,User,-,,Recall,Recall2,7266,BASKET,0,5513,6905,0,0,,1
628e0063fa56e316da2a71cb,ioyds5n8e2,"Mediated Recall_Prolific",1,184,2023-02-06T00:09:59+00:00,6.5465409755707,1,versionA_stim.csv,ReadVersion.csv,Read,Read1,OVEN,BASKET,Study2,M,71,103,Test,User,-,,Recall,Recall2,6386,BASKET,100,2802,4202,1,1,,1
628e0063fa56e316da2a71cb,ioyds5n8e2,"Mediated Recall_Prolific",1,185,2023-02-06T00:10:04+00:00,4.8682560920715,1,versionA_stim.csv,ReadVersion.csv,Read,Read1,GRILL,THIGH,Study2,M,72,65,Test,User,-,,Recall,Recall2,4682,,0,-1,-1,0,0,,1
628e0063fa56e316da2a71cb,ioyds5n8e2,"Mediated Recall_Prolific",1,186,2023-02-06T00:10:06+00:00,2.3866679668427,1,versionA_stim.csv,ReadVersion.csv,Read,Read1,DOCUMENT,PAPER,Study2,F,82,79,Test,User,-,,Recall,Recall2,2224,PAPER,100,1343,1975,1,1,,1
628e0063fa56e316da2a71cb,ioyds5n8e2,"Mediated Recall_Prolific",1,187,2023-02-06T00:10:17+00:00,10.503756999969,1,versionA_stim.csv,ReadVersion.csv,Read,Read1,HAPPY,CAR,Study2,U,92,75,Test,User,-,,Recall,Recall2,10332,FACE,28.571428571429,9060,9675,0,0,,1
628e0063fa56e316da2a71cb,ioyds5n8e2,"Mediated Recall_Prolific",1,188,2023-02-06T00:10:39+00:00,21.958667039871,1,versionA_stim.csv,ReadVersion.csv,Read,Read1,PANTS,COLLAR,Study2,M,63,77,Test,User,-,,Recall,Recall2,21686,THIGH,0,12207,20918,0,0,,1
628e0063fa56e316da2a71cb,ioyds5n8e2,"Mediated Recall_Prolific",1,189,2023-02-06T00:10:44+00:00,5.8488669395447,1,versionA_stim.csv,ReadVersion.csv,Read,Read1,DIETARY,SACK,Study2,U,97,105,Test,User,-,,Recall,Recall2,5678,,0,-1,-1,0,0,,1
628e0063fa56e316da2a71cb,ioyds5n8e2,"Mediated Recall_Prolific",1,190,2023-02-06T00:10:47+00:00,2.4625160694122,1,versionA_stim.csv,ReadVersion.csv,Read,Read1,HERD,COW,Study2,F,88,69,Test,User,-,,Recall,Recall2,2304,COW,100,1599,1951,1,1,,1
628e0063fa56e316da2a71cb,ioyds5n8e2,"Mediated Recall_Prolific",1,191,2023-02-06T00:10:55+00:00,7.7183759212494,1,versionA_stim.csv,ReadVersion.csv,Read,Read1,WINDOW,KNOB,Study2,M,74,63,Test,User,-,,Recall,Recall2,7563,,0,-1,-1,0,0,,1
628e0063fa56e316da2a71cb,ioyds5n8e2,"Mediated Recall_Prolific",1,192,2023-02-06T00:11:03+00:00,8.5148019790649,1,versionA_stim.csv,ReadVersion.csv,Read,Read1,FEUD,FIGHT,Study2,F,86,91,Test,User,-,,Recall,Recall2,8357,FURY,22.222222222222,7404,7987,0,0,,1
628e0063fa56e316da2a71cb,ioyds5n8e2,"Mediated Recall_Prolific",1,193,2023-02-06T00:11:05+00:00,2.1038429737091,1,versionA_stim.csv,ReadVersion.csv,Read,Read1,CHERRY,RED,Study2,F,80,106,Test,User,-,,Recall,Recall2,1921,RED,100,1281,1744,1,1,,1
628e0063fa56e316da2a71cb,ioyds5n8e2,"Mediated Recall_Prolific",1,194,2023-02-06T00:11:08+00:00,2.6858420372009,1,versionA_stim.csv,ReadVersion.csv,Read,Read1,CACTUS,PLANT,Study2,F,76,64,Test,User,-,,Recall,Recall2,2531,PLANT,100,1459,2323,1,1,,1
628e0063fa56e316da2a71cb,ioyds5n8e2,"Mediated Recall_Prolific",1,195,2023-02-06T00:11:17+00:00,8.7538940906525,1,versionA_stim.csv,ReadVersion.csv,Read,Read1,BOTH,OUNCE,Study2,U,102,80,Test,User,-,,Recall,Recall2,8593,,0,-1,-1,0,0,,1
628e0063fa56e316da2a71cb,ioyds5n8e2,"Mediated Recall_Prolific",1,196,2023-02-06T00:11:22+00:00,5.3194210529327,1,versionA_stim.csv,ReadVersion.csv,Read,Read1,HEAVY,FEATHER,Study2,M,68,62,Test,User,-,,Recall,Recall2,5161,FEATHER,100,3592,4799,1,1,,1
628e0063fa56e316da2a71cb,ioyds5n8e2,"Mediated Recall_Prolific",1,197,2023-02-06T00:11:36+00:00,13.57563996315,1,versionA_stim.csv,ReadVersion.csv,Read,Read1,STRONG,ACCIDENT,Study2,U,94,83,Test,User,-,,Recall,Recall2,13418,SMELL,15.384615384615,12666,13242,0,0,,1
628e0063fa56e316da2a71cb,ioyds5n8e2,"Mediated Recall_Prolific",1,198,2023-02-06T00:11:41+00:00,4.9951629638672,1,versionA_stim.csv,ReadVersion.csv,Read,Read1,INCENSE,SMELL,Study2,F,83,72,Test,User,-,,Recall,Recall2,4830,SMELL,100,3653,4590,1,1,,1
628e0063fa56e316da2a71cb,ioyds5n8e2,"Mediated Recall_Prolific",1,199,2023-02-06T00:11:51+00:00,10.902025938034,1,versionA_stim.csv,ReadVersion.csv,Read,Read1,LEASE,TOIL,Study2,U,101,95,Test,User,-,,Recall,Recall2,10741,TOIL,100,9996,10324,1,1,,1
628e0063fa56e316da2a71cb,ioyds5n8e2,"Mediated Recall_Prolific",1,200,2023-02-06T00:11:56+00:00,4.1402690410614,1,versionA_stim.csv,ReadVersion.csv,Read,Read1,HORNET,STING,Study2,F,85,97,Test,User,-,,Recall,Recall2,3975,STING,100,1656,2150,1,1,,1
628e0063fa56e316da2a71cb,ioyds5n8e2,"Mediated Recall_Prolific",1,201,2023-02-06T00:12:09+00:00,13.6031498909,1,versionA_stim.csv,ReadVersion.csv,Read,Read1,CASH,LEG,Study2,U,105,93,Test,User,-,,Recall,Recall2,13443,,0,-1,-1,0,0,,1
628e0063fa56e316da2a71cb,ioyds5n8e2,"Mediated Recall_Prolific",1,202,2023-02-06T00:12:47+00:00,37.392785072327,1,versionA_stim.csv,ReadVersion.csv,Read,Read1,DEATH,BUSINESS,Study2,U,99,104,Test,User,-,,Recall,Recall2,37106,,0,-1,-1,0,0,,1
628e0063fa56e316da2a71cb,ioyds5n8e2,"Mediated Recall_Prolific",1,203,2023-02-06T00:12:54+00:00,7.3030500411987,1,versionA_stim.csv,ReadVersion.csv,Read,Read1,PUSH,CLUTTER,Study2,U,96,74,Test,User,-,,Recall,Recall2,7140,,0,-1,-1,0,0,,1
628e0063fa56e316da2a71cb,ioyds5n8e2,"Mediated Recall_Prolific",1,204,2023-02-06T00:12:57+00:00,2.9956610202789,1,versionA_stim.csv,ReadVersion.csv,Read,Read1,BLAZE,FIRE,Study2,F,81,84,Test,User,-,,Recall,Recall2,2829,FIRE,100,1741,2092,1,1,,1
628e0063fa56e316da2a71cb,ioyds5n8e2,"Mediated Recall_Prolific",1,205,2023-02-06T00:13:00+00:00,2.6278650760651,1,versionA_stim.csv,ReadVersion.csv,Read,Read1,NURSE,LAWYER,Study2,M,66,90,Test,User,-,,Recall,Recall2,2472,LAWYER,100,1399,2279,1,1,,1
628e0063fa56e316da2a71cb,ioyds5n8e2,"Mediated Recall_Prolific",1,206,2023-02-06T00:13:06+00:00,6.718710899353,1,versionA_stim.csv,ReadVersion.csv,Read,Read1,TRAP,CAVE,Study2,M,70,99,Test,User,-,,Recall,Recall2,6561,,0,-1,-1,0,0,,1
628e0063fa56e316da2a71cb,ioyds5n8e2,"Mediated Recall_Prolific",1,207,2023-02-06T00:13:09+00:00,2.9103429317474,1,versionA_stim.csv,ReadVersion.csv,Read,Read1,ART,WOLF,Study2,U,93,87,Test,User,-,,Recall,Recall2,2755,WOLF,100,1885,2395,1,1,,1
628e0063fa56e316da2a71cb,ioyds5n8e2,"Mediated Recall_Prolific",1,208,2023-02-06T00:13:15+00:00,5.6510000228882,1,versionA_stim.csv,ReadVersion.csv,Read,Read1,RAKE,SEED,Study2,M,69,92,Test,User,-,,Recall,Recall2,5490,SEED,100,3593,4393,1,1,,1
628e0063fa56e316da2a71cb,ioyds5n8e2,"Mediated Recall_Prolific",1,209,2023-02-06T00:13:27+00:00,11.815463066101,1,versionA_stim.csv,ReadVersion.csv,Read,Read1,ATTIRE,CLOTHES,Study2,F,79,98,Test,User,-,,Recall,Recall2,11634,PANTS,33.333333333333,3050,11314,0,0,,1
628e0063fa56e316da2a71cb,ioyds5n8e2,"Mediated Recall_Prolific",1,210,2023-02-06T00:13:32+00:00,5.6935300827026,1,versionA_stim.csv,ReadVersion.csv,Read,Read1,CHISEL,HAMMER,Study2,F,78,71,Test,User,-,,Recall,Recall2,5536,,0,-1,-1,0,0,,1
628e0063fa56e316da2a71cb,ioyds5n8e2,"Mediated Recall_Prolific",1,211,2023-02-06T00:13:36+00:00,3.9153769016266,1,versionA_stim.csv,ReadVersion.csv,Read,Read1,,,,,,0,Instruct,User,-,"You have completed this section. Please press Enter.",,Instruct7,3761,,,-1,-1,,,,1
628e0063fa56e316da2a71cb,ioyds5n8e2,"Mediated Recall_Prolific",1,212,2023-02-06T00:13:42+00:00,5.912929058075,1,versionA_stim.csv,ReadVersion.csv,Read,Read1,,,,,,0,Instruct,User,-,"The following screen will ask you a few questions abour your experience today. You must complete these questions to receive credit.",,Instruct8,5756,,,-1,-1,,,,1
