Username,ID,ExperimentName,Session,Trial,Date,TimeDif,"Condition Number","Stimuli File","Order File","Condition Description","Condition Notes",Stimuli*Cue,Stimuli*Answer,Stimuli*Shuffle,"Stimuli*Stimuli Notes",Stimuli*Value,Procedure*Item,"Procedure*Trial Type","Procedure*Max Time","Procedure*Min Time",Procedure*Text,"Procedure*Procedure Notes",Procedure*Shuffle,Response*RT,Response*Response,Response*Accuracy,Response*RTfirst,Response*RTlast,Response*strictAcc,Response*lenientAcc,Response*focus,Response*Focus
63e57dfe078c526e4fb9d33f,9270oji3r5,"Mediated Recall_Prolific",1,1,2023-03-04T18:03:47+00:00,5.9983179569244,3,versionB_stim.csv,ReadVersion.csv,Read,Read2,,,,,,0,Instruct,-,5,"In this section, you will be presented with a series of word pairs. Please study each word pair! Your memory will be tested!",Initial_Instruct,Instruct1,5808,,,-1,-1,,,,1
63e57dfe078c526e4fb9d33f,9270oji3r5,"Mediated Recall_Prolific",1,2,2023-03-04T18:03:49+00:00,2.2931571006775,3,versionB_stim.csv,ReadVersion.csv,Read,Read2,,,,,,0,Instruct,User,-,"You will now begin. Press Enter when you are ready to begin.",,Instruct16,1989,,,-1,-1,,,,1
63e57dfe078c526e4fb9d33f,9270oji3r5,"Mediated Recall_Prolific",1,3,2023-03-04T18:03:58+00:00,9.5890598297119,3,versionB_stim.csv,ReadVersion.csv,Read,Read2,DAYS,WEAKS,BUFFER3,Buffer,1,6,Study,User,-,,Study/JOL,BUFFER,9350,,,2353,3203,,,,1
63e57dfe078c526e4fb9d33f,9270oji3r5,"Mediated Recall_Prolific",1,4,2023-03-04T18:04:06+00:00,7.9185450077057,3,versionB_stim.csv,ReadVersion.csv,Read,Read2,MONTH,YEAR,BUFFER3,Buffer,2,2,Study,User,-,,Study/JOL,BUFFER,7664,,,-1,-1,,,,1
63e57dfe078c526e4fb9d33f,9270oji3r5,"Mediated Recall_Prolific",1,5,2023-03-04T18:04:11+00:00,4.1260511875153,3,versionB_stim.csv,ReadVersion.csv,Read,Read2,TOOL,SHED,BUFFER3,Buffer,3,3,Study,User,-,,Study/JOL,BUFFER,3876,,,-1,-1,,,,1
63e57dfe078c526e4fb9d33f,9270oji3r5,"Mediated Recall_Prolific",1,6,2023-03-04T18:04:17+00:00,6.8221518993378,3,versionB_stim.csv,ReadVersion.csv,Read,Read2,OCTOBER,SPOOKY,BUFFER3,Buffer,5,4,Study,User,-,,Study/JOL,BUFFER,6569,,,-1,-1,,,,1
63e57dfe078c526e4fb9d33f,9270oji3r5,"Mediated Recall_Prolific",1,7,2023-03-04T18:04:26+00:00,8.6830179691315,3,versionB_stim.csv,ReadVersion.csv,Read,Read2,SPRING,MARCH,BUFFER3,Buffer,4,5,Study,User,-,,Study/JOL,BUFFER,6675,,,-1,-1,,,,1
63e57dfe078c526e4fb9d33f,9270oji3r5,"Mediated Recall_Prolific",1,8,2023-03-04T18:04:35+00:00,9.2857120037079,3,versionB_stim.csv,ReadVersion.csv,Read,Read2,HAPPY,CAR,Study2,U,37,40,Study,User,-,,Study/JOL,"Study Phase",9038,,,-1,-1,,,,1
63e57dfe078c526e4fb9d33f,9270oji3r5,"Mediated Recall_Prolific",1,9,2023-03-04T18:04:44+00:00,8.4580070972443,3,versionB_stim.csv,ReadVersion.csv,Read,Read2,NURSE,LAWYER,Study2,M,11,15,Study,User,-,,Study/JOL,"Study Phase",8208,,,-1,-1,,,,1
63e57dfe078c526e4fb9d33f,9270oji3r5,"Mediated Recall_Prolific",1,10,2023-03-04T18:04:49+00:00,5.4478378295898,3,versionB_stim.csv,ReadVersion.csv,Read,Read2,FEUD,FIGHT,Study2,F,31,36,Study,User,-,,Study/JOL,"Study Phase",5170,,,-1,-1,,,,1
63e57dfe078c526e4fb9d33f,9270oji3r5,"Mediated Recall_Prolific",1,11,2023-03-04T18:04:54+00:00,4.8925530910492,3,versionB_stim.csv,ReadVersion.csv,Read,Read2,HEAVY,FEATHER,Study2,M,13,47,Study,User,-,,Study/JOL,"Study Phase",4646,,,-1,-1,,,,1
63e57dfe078c526e4fb9d33f,9270oji3r5,"Mediated Recall_Prolific",1,12,2023-03-04T18:04:58+00:00,4.2635550498962,3,versionB_stim.csv,ReadVersion.csv,Read,Read2,ATTIRE,CLOTHES,Study2,F,24,14,Study,User,-,,Study/JOL,"Study Phase",4009,,,-1,-1,,,,1
63e57dfe078c526e4fb9d33f,9270oji3r5,"Mediated Recall_Prolific",1,13,2023-03-04T18:05:03+00:00,4.3617060184479,3,versionB_stim.csv,ReadVersion.csv,Read,Read2,REALITY,ISLAND,Study2,M,9,22,Study,User,-,,Study/JOL,"Study Phase",4120,,,-1,-1,,,,1
63e57dfe078c526e4fb9d33f,9270oji3r5,"Mediated Recall_Prolific",1,14,2023-03-04T18:05:14+00:00,10.896317005157,3,versionB_stim.csv,ReadVersion.csv,Read,Read2,ART,WOLF,Study2,U,38,35,Study,User,-,,Study/JOL,"Study Phase",10508,,,-1,-1,,,,1
63e57dfe078c526e4fb9d33f,9270oji3r5,"Mediated Recall_Prolific",1,15,2023-03-04T18:05:20+00:00,6.2439119815826,3,versionB_stim.csv,ReadVersion.csv,Read,Read2,BENCH,HORN,Study2,U,43,21,Study,User,-,,Study/JOL,"Study Phase",6018,,,-1,-1,,,,1
63e57dfe078c526e4fb9d33f,9270oji3r5,"Mediated Recall_Prolific",1,16,2023-03-04T18:05:27+00:00,6.7454779148102,3,versionB_stim.csv,ReadVersion.csv,Read,Read2,HERD,COW,Study2,F,33,41,Study,User,-,,Study/JOL,"Study Phase",6511,,,-1,-1,,,,1
63e57dfe078c526e4fb9d33f,9270oji3r5,"Mediated Recall_Prolific",1,17,2023-03-04T18:05:31+00:00,4.1061129570007,3,versionB_stim.csv,ReadVersion.csv,Read,Read2,PANTS,COLLAR,Study2,M,8,8,Study,User,-,,Study/JOL,"Study Phase",3866,,,-1,-1,,,,1
63e57dfe078c526e4fb9d33f,9270oji3r5,"Mediated Recall_Prolific",1,18,2023-03-04T18:05:48+00:00,17.742799043655,3,versionB_stim.csv,ReadVersion.csv,Read,Read2,SOAP,DRINK,Study2,M,12,16,Study,User,-,,Study/JOL,"Study Phase",17344,,,-1,-1,,,,1
63e57dfe078c526e4fb9d33f,9270oji3r5,"Mediated Recall_Prolific",1,19,2023-03-04T18:05:53+00:00,4.9825510978699,3,versionB_stim.csv,ReadVersion.csv,Read,Read2,RAZOR,MUSCLE,Study2,M,20,9,Study,User,-,,Study/JOL,"Study Phase",4691,,,-1,-1,,,,1
63e57dfe078c526e4fb9d33f,9270oji3r5,"Mediated Recall_Prolific",1,20,2023-03-04T18:05:58+00:00,4.5686018466949,3,versionB_stim.csv,ReadVersion.csv,Read,Read2,BRIDGE,WATER,Study2,F,35,11,Study,User,-,,Study/JOL,"Study Phase",4324,,,-1,-1,,,,1
63e57dfe078c526e4fb9d33f,9270oji3r5,"Mediated Recall_Prolific",1,21,2023-03-04T18:06:05+00:00,6.5378301143646,3,versionB_stim.csv,ReadVersion.csv,Read,Read2,DEATH,BUSINESS,Study2,U,44,30,Study,User,-,,Study/JOL,"Study Phase",6294,,,-1,-1,,,,1
63e57dfe078c526e4fb9d33f,9270oji3r5,"Mediated Recall_Prolific",1,22,2023-03-04T18:06:09+00:00,4.6968309879303,3,versionB_stim.csv,ReadVersion.csv,Read,Read2,SICK,HIDE,Study2,U,45,32,Study,User,-,,Study/JOL,"Study Phase",4458,,,-1,-1,,,,1
63e57dfe078c526e4fb9d33f,9270oji3r5,"Mediated Recall_Prolific",1,23,2023-03-04T18:06:15+00:00,5.2363920211792,3,versionB_stim.csv,ReadVersion.csv,Read,Read2,SUGAR,RIDDLE,Study2,U,40,29,Study,User,-,,Study/JOL,"Study Phase",4990,,,-1,-1,,,,1
63e57dfe078c526e4fb9d33f,9270oji3r5,"Mediated Recall_Prolific",1,24,2023-03-04T18:06:19+00:00,4.9130339622498,3,versionB_stim.csv,ReadVersion.csv,Read,Read2,LEAGUE,BASEBALL,Study2,F,29,13,Study,User,-,,Study/JOL,"Study Phase",4662,,,-1,-1,,,,1
63e57dfe078c526e4fb9d33f,9270oji3r5,"Mediated Recall_Prolific",1,25,2023-03-04T18:06:24+00:00,4.3912711143494,3,versionB_stim.csv,ReadVersion.csv,Read,Read2,GRILL,THIGH,Study2,M,17,33,Study,User,-,,Study/JOL,"Study Phase",4152,,,-1,-1,,,,1
63e57dfe078c526e4fb9d33f,9270oji3r5,"Mediated Recall_Prolific",1,26,2023-03-04T18:06:29+00:00,4.9831569194794,3,versionB_stim.csv,ReadVersion.csv,Read,Read2,INCENSE,SMELL,Study2,F,28,38,Study,User,-,,Study/JOL,"Study Phase",4738,,,-1,-1,,,,1
63e57dfe078c526e4fb9d33f,9270oji3r5,"Mediated Recall_Prolific",1,27,2023-03-04T18:06:33+00:00,4.3621230125427,3,versionB_stim.csv,ReadVersion.csv,Read,Read2,STRONG,ACCIDENT,Study2,U,39,25,Study,User,-,,Study/JOL,"Study Phase",4116,,,-1,-1,,,,1
63e57dfe078c526e4fb9d33f,9270oji3r5,"Mediated Recall_Prolific",1,28,2023-03-04T18:06:38+00:00,4.3718960285187,3,versionB_stim.csv,ReadVersion.csv,Read,Read2,MIRROR,CHILDREN,Study2,U,49,34,Study,User,-,,Study/JOL,"Study Phase",4084,,,-1,-1,,,,1
63e57dfe078c526e4fb9d33f,9270oji3r5,"Mediated Recall_Prolific",1,29,2023-03-04T18:06:42+00:00,4.0649738311768,3,versionB_stim.csv,ReadVersion.csv,Read,Read2,WASP,BUG,Study2,F,34,26,Study,User,-,,Study/JOL,"Study Phase",3830,,,-1,-1,,,,1
63e57dfe078c526e4fb9d33f,9270oji3r5,"Mediated Recall_Prolific",1,30,2023-03-04T18:06:45+00:00,3.4659321308136,3,versionB_stim.csv,ReadVersion.csv,Read,Read2,CASH,LEG,Study2,U,50,42,Study,User,-,,Study/JOL,"Study Phase",3218,,,-1,-1,,,,1
63e57dfe078c526e4fb9d33f,9270oji3r5,"Mediated Recall_Prolific",1,31,2023-03-04T18:06:49+00:00,3.7811710834503,3,versionB_stim.csv,ReadVersion.csv,Read,Read2,CHOP,CUT,Study2,F,22,19,Study,User,-,,Study/JOL,"Study Phase",3522,,,-1,-1,,,,1
63e57dfe078c526e4fb9d33f,9270oji3r5,"Mediated Recall_Prolific",1,32,2023-03-04T18:06:53+00:00,3.7716088294983,3,versionB_stim.csv,ReadVersion.csv,Read,Read2,OVEN,BASKET,Study2,M,16,48,Study,User,-,,Study/JOL,"Study Phase",3485,,,-1,-1,,,,1
63e57dfe078c526e4fb9d33f,9270oji3r5,"Mediated Recall_Prolific",1,33,2023-03-04T18:06:59+00:00,6.6366310119629,3,versionB_stim.csv,ReadVersion.csv,Read,Read2,VALLEY,PEAK,Study2,M,18,24,Study,User,-,,Study/JOL,"Study Phase",6208,,,-1,-1,,,,1
63e57dfe078c526e4fb9d33f,9270oji3r5,"Mediated Recall_Prolific",1,34,2023-03-04T18:07:04+00:00,5.2097029685974,3,versionB_stim.csv,ReadVersion.csv,Read,Read2,PUSH,CLUTTER,Study2,U,41,7,Study,User,-,,Study/JOL,"Study Phase",4964,,,-1,-1,,,,1
63e57dfe078c526e4fb9d33f,9270oji3r5,"Mediated Recall_Prolific",1,35,2023-03-04T18:07:10+00:00,5.1885650157928,3,versionB_stim.csv,ReadVersion.csv,Read,Read2,DIETARY,SACK,Study2,U,42,27,Study,User,-,,Study/JOL,"Study Phase",4949,,,-1,-1,,,,1
63e57dfe078c526e4fb9d33f,9270oji3r5,"Mediated Recall_Prolific",1,36,2023-03-04T18:07:14+00:00,4.1060571670532,3,versionB_stim.csv,ReadVersion.csv,Read,Read2,LEASE,TOIL,Study2,U,46,51,Study,User,-,,Study/JOL,"Study Phase",3868,,,-1,-1,,,,1
63e57dfe078c526e4fb9d33f,9270oji3r5,"Mediated Recall_Prolific",1,37,2023-03-04T18:07:19+00:00,5.511293888092,3,versionB_stim.csv,ReadVersion.csv,Read,Read2,EYES,SMELL,Study2,M,10,45,Study,User,-,,Study/JOL,"Study Phase",5277,,,-1,-1,,,,1
63e57dfe078c526e4fb9d33f,9270oji3r5,"Mediated Recall_Prolific",1,38,2023-03-04T18:07:25+00:00,5.4760749340057,3,versionB_stim.csv,ReadVersion.csv,Read,Read2,BLAZE,FIRE,Study2,F,26,49,Study,User,-,,Study/JOL,"Study Phase",5208,,,-1,-1,,,,1
63e57dfe078c526e4fb9d33f,9270oji3r5,"Mediated Recall_Prolific",1,39,2023-03-04T18:07:29+00:00,4.4997780323029,3,versionB_stim.csv,ReadVersion.csv,Read,Read2,RAKE,SEED,Study2,M,14,28,Study,User,-,,Study/JOL,"Study Phase",4241,,,-1,-1,,,,1
63e57dfe078c526e4fb9d33f,9270oji3r5,"Mediated Recall_Prolific",1,40,2023-03-04T18:07:34+00:00,5.1584551334381,3,versionB_stim.csv,ReadVersion.csv,Read,Read2,HORNET,STING,Study2,F,30,17,Study,User,-,,Study/JOL,"Study Phase",4906,,,-1,-1,,,,1
63e57dfe078c526e4fb9d33f,9270oji3r5,"Mediated Recall_Prolific",1,41,2023-03-04T18:07:39+00:00,4.6773300170898,3,versionB_stim.csv,ReadVersion.csv,Read,Read2,ARTERY,BRONZE,Study2,U,48,39,Study,User,-,,Study/JOL,"Study Phase",4444,,,-1,-1,,,,1
63e57dfe078c526e4fb9d33f,9270oji3r5,"Mediated Recall_Prolific",1,42,2023-03-04T18:07:45+00:00,5.9473738670349,3,versionB_stim.csv,ReadVersion.csv,Read,Read2,CACTUS,PLANT,Study2,F,21,31,Study,User,-,,Study/JOL,"Study Phase",5669,,,-1,-1,,,,1
63e57dfe078c526e4fb9d33f,9270oji3r5,"Mediated Recall_Prolific",1,43,2023-03-04T18:07:52+00:00,6.5876989364624,3,versionB_stim.csv,ReadVersion.csv,Read,Read2,DOCUMENT,PAPER,Study2,F,27,46,Study,User,-,,Study/JOL,"Study Phase",6333,,,-1,-1,,,,1
63e57dfe078c526e4fb9d33f,9270oji3r5,"Mediated Recall_Prolific",1,44,2023-03-04T18:07:57+00:00,5.1182911396027,3,versionB_stim.csv,ReadVersion.csv,Read,Read2,CHERRY,RED,Study2,F,25,50,Study,User,-,,Study/JOL,"Study Phase",4826,,,-1,-1,,,,1
63e57dfe078c526e4fb9d33f,9270oji3r5,"Mediated Recall_Prolific",1,45,2023-03-04T18:08:01+00:00,4.4115760326385,3,versionB_stim.csv,ReadVersion.csv,Read,Read2,KING,VASE,Study2,U,36,20,Study,User,-,,Study/JOL,"Study Phase",4154,,,-1,-1,,,,1
63e57dfe078c526e4fb9d33f,9270oji3r5,"Mediated Recall_Prolific",1,46,2023-03-04T18:08:05+00:00,3.731880903244,3,versionB_stim.csv,ReadVersion.csv,Read,Read2,CHILL,COLD,Study2,F,32,12,Study,User,-,,Study/JOL,"Study Phase",3321,,,-1,-1,,,,1
63e57dfe078c526e4fb9d33f,9270oji3r5,"Mediated Recall_Prolific",1,47,2023-03-04T18:08:09+00:00,3.7820479869843,3,versionB_stim.csv,ReadVersion.csv,Read,Read2,TRAP,CAVE,Study2,M,15,18,Study,User,-,,Study/JOL,"Study Phase",3539,,,-1,-1,,,,1
63e57dfe078c526e4fb9d33f,9270oji3r5,"Mediated Recall_Prolific",1,48,2023-03-04T18:08:13+00:00,3.9369821548462,3,versionB_stim.csv,ReadVersion.csv,Read,Read2,SUMMER,SNOW,Study2,M,6,44,Study,User,-,,Study/JOL,"Study Phase",3694,,,-1,-1,,,,1
63e57dfe078c526e4fb9d33f,9270oji3r5,"Mediated Recall_Prolific",1,49,2023-03-04T18:08:19+00:00,5.977648973465,3,versionB_stim.csv,ReadVersion.csv,Read,Read2,WINDOW,KNOB,Study2,M,19,23,Study,User,-,,Study/JOL,"Study Phase",5602,,,-1,-1,,,,1
63e57dfe078c526e4fb9d33f,9270oji3r5,"Mediated Recall_Prolific",1,50,2023-03-04T18:08:23+00:00,4.1534559726715,3,versionB_stim.csv,ReadVersion.csv,Read,Read2,BOTH,OUNCE,Study2,U,47,43,Study,User,-,,Study/JOL,"Study Phase",3902,,,-1,-1,,,,1
63e57dfe078c526e4fb9d33f,9270oji3r5,"Mediated Recall_Prolific",1,51,2023-03-04T18:08:27+00:00,4.3428928852081,3,versionB_stim.csv,ReadVersion.csv,Read,Read2,CHISEL,HAMMER,Study2,F,23,37,Study,User,-,,Study/JOL,"Study Phase",4112,,,-1,-1,,,,1
63e57dfe078c526e4fb9d33f,9270oji3r5,"Mediated Recall_Prolific",1,52,2023-03-04T18:08:31+00:00,3.8292191028595,3,versionB_stim.csv,ReadVersion.csv,Read,Read2,SCHOOL,STOP,Study2,M,7,10,Study,User,-,,Study/JOL,"Study Phase",3585,,,-1,-1,,,,1
63e57dfe078c526e4fb9d33f,9270oji3r5,"Mediated Recall_Prolific",1,53,2023-03-04T18:08:41+00:00,9.6989459991455,3,versionB_stim.csv,ReadVersion.csv,Read,Read2,SHERRIF,POLICE,BUFFER2,Buffer,107,111,Study,User,-,,Study/JOL,BUFFER2,9316,,,-1,-1,,,,1
63e57dfe078c526e4fb9d33f,9270oji3r5,"Mediated Recall_Prolific",1,54,2023-03-04T18:08:45+00:00,4.3714919090271,3,versionB_stim.csv,ReadVersion.csv,Read,Read2,PEANUT,BUTTER,BUFFER1,Buffer,58,57,Study,User,-,,Study/JOL,BUFFER2,4137,,,-1,-1,,,,1
63e57dfe078c526e4fb9d33f,9270oji3r5,"Mediated Recall_Prolific",1,55,2023-03-04T18:08:49+00:00,4.5293109416962,3,versionB_stim.csv,ReadVersion.csv,Read,Read2,ICE,FROZEN,BUFFER4,Buffer,54,52,Study,User,-,,Study/JOL,BUFFER2,4279,,,-1,-1,,,,1
63e57dfe078c526e4fb9d33f,9270oji3r5,"Mediated Recall_Prolific",1,56,2023-03-04T18:08:57+00:00,7.7510101795197,3,versionB_stim.csv,ReadVersion.csv,Read,Read2,PITCHER,CATCHER,BUFFER1,Buffer,57,60,Study,User,-,,Study/JOL,BUFFER2,7490,,,-1,-1,,,,1
63e57dfe078c526e4fb9d33f,9270oji3r5,"Mediated Recall_Prolific",1,57,2023-03-04T18:09:03+00:00,5.8677608966827,3,versionB_stim.csv,ReadVersion.csv,Read,Read2,CARROT,POTATO,BUFFER4,Buffer,51,56,Study,User,-,,Study/JOL,BUFFER2,5558,,,-1,-1,,,,1
63e57dfe078c526e4fb9d33f,9270oji3r5,"Mediated Recall_Prolific",1,58,2023-03-04T18:09:06+00:00,3.0222139358521,3,versionB_stim.csv,ReadVersion.csv,Read,Read2,,,,,,0,Instruct,User,-,"You have completed this section. Please press Enter.",Filler_Instruction,Instruct2,2738,,,-1,-1,,,,1
63e57dfe078c526e4fb9d33f,9270oji3r5,"Mediated Recall_Prolific",1,59,2023-03-04T18:11:07+00:00,120.36777997017,3,versionB_stim.csv,ReadVersion.csv,Read,Read2,,,,,,0,FreeRecall,120,120,"Please list the 50 US states in alphabetical order. The task will automatically advance to the next screen after two minutes.",,Filler1,120002,"alabama arkansas alaska california connecticut delaware florida georgia hawaii idaho illinois iowa kansas louisiana maryland massachusetts minnesota montana ",0,5487,117810,0,0,,1
63e57dfe078c526e4fb9d33f,9270oji3r5,"Mediated Recall_Prolific",1,60,2023-03-04T18:11:18+00:00,11.000883102417,3,versionB_stim.csv,ReadVersion.csv,Read,Read2,,,,,,0,Instruct,-,10,"You will now be presented with the first word from each of the previously studied item pairs. Please type the missing word. If you do not know the word, you may guess or press Enter to skip forward to the next pair.",,Instruct3,10694,,,-1,-1,,,,1
63e57dfe078c526e4fb9d33f,9270oji3r5,"Mediated Recall_Prolific",1,61,2023-03-04T18:11:29+00:00,11.155744075775,3,versionB_stim.csv,ReadVersion.csv,Read,Read2,OVEN,BASKET,Study2,M,16,48,Test,User,-,,Recall,Recall1,10909,heat,40,9636,9836,0,0,,1
63e57dfe078c526e4fb9d33f,9270oji3r5,"Mediated Recall_Prolific",1,62,2023-03-04T18:11:36+00:00,7.0487508773804,3,versionB_stim.csv,ReadVersion.csv,Read,Read2,WINDOW,KNOB,Study2,M,19,23,Test,User,-,,Recall,Recall1,6812,knob,100,6123,6667,1,1,,1
63e57dfe078c526e4fb9d33f,9270oji3r5,"Mediated Recall_Prolific",1,63,2023-03-04T18:11:38+00:00,2.0972871780396,3,versionB_stim.csv,ReadVersion.csv,Read,Read2,HORNET,STING,Study2,F,30,17,Test,User,-,,Recall,Recall1,1833,sting,100,1159,1646,1,1,,1
63e57dfe078c526e4fb9d33f,9270oji3r5,"Mediated Recall_Prolific",1,64,2023-03-04T18:11:43+00:00,5.0608148574829,3,versionB_stim.csv,ReadVersion.csv,Read,Read2,BOTH,OUNCE,Study2,U,47,43,Test,User,-,,Recall,Recall1,4829,,0,-1,-1,0,0,,1
63e57dfe078c526e4fb9d33f,9270oji3r5,"Mediated Recall_Prolific",1,65,2023-03-04T18:11:50+00:00,6.9203019142151,3,versionB_stim.csv,ReadVersion.csv,Read,Read2,VALLEY,PEAK,Study2,M,18,24,Test,User,-,,Recall,Recall1,6666,peak,100,6159,6460,1,1,,1
63e57dfe078c526e4fb9d33f,9270oji3r5,"Mediated Recall_Prolific",1,66,2023-03-04T18:12:03+00:00,13.452242136002,3,versionB_stim.csv,ReadVersion.csv,Read,Read2,RAKE,SEED,Study2,M,14,28,Test,User,-,,Recall,Recall1,13215,seed,100,12623,13105,1,1,,1
63e57dfe078c526e4fb9d33f,9270oji3r5,"Mediated Recall_Prolific",1,67,2023-03-04T18:12:10+00:00,7.1749329566956,3,versionB_stim.csv,ReadVersion.csv,Read,Read2,ART,WOLF,Study2,U,38,35,Test,User,-,,Recall,Recall1,6923,,0,-1,-1,0,0,,1
63e57dfe078c526e4fb9d33f,9270oji3r5,"Mediated Recall_Prolific",1,68,2023-03-04T18:12:18+00:00,7.6313569545746,3,versionB_stim.csv,ReadVersion.csv,Read,Read2,CACTUS,PLANT,Study2,F,21,31,Test,User,-,,Recall,Recall1,7334,plant,100,6681,7158,1,1,,1
63e57dfe078c526e4fb9d33f,9270oji3r5,"Mediated Recall_Prolific",1,69,2023-03-04T18:12:30+00:00,11.79801607132,3,versionB_stim.csv,ReadVersion.csv,Read,Read2,WASP,BUG,Study2,F,34,26,Test,User,-,,Recall,Recall1,11555,bug,100,9346,11277,1,1,,1
63e57dfe078c526e4fb9d33f,9270oji3r5,"Mediated Recall_Prolific",1,70,2023-03-04T18:12:44+00:00,13.980274915695,3,versionB_stim.csv,ReadVersion.csv,Read,Read2,HAPPY,CAR,Study2,U,37,40,Test,User,-,,Recall,Recall1,13750,,0,-1,-1,0,0,,1
63e57dfe078c526e4fb9d33f,9270oji3r5,"Mediated Recall_Prolific",1,71,2023-03-04T18:12:48+00:00,3.6821181774139,3,versionB_stim.csv,ReadVersion.csv,Read,Read2,HEAVY,FEATHER,Study2,M,13,47,Test,User,-,,Recall,Recall1,3444,feather,100,2414,3160,1,1,,1
63e57dfe078c526e4fb9d33f,9270oji3r5,"Mediated Recall_Prolific",1,72,2023-03-04T18:12:52+00:00,4.6962268352509,3,versionB_stim.csv,ReadVersion.csv,Read,Read2,BRIDGE,WATER,Study2,F,35,11,Test,User,-,,Recall,Recall1,4452,water,100,3973,4327,1,1,,1
63e57dfe078c526e4fb9d33f,9270oji3r5,"Mediated Recall_Prolific",1,73,2023-03-04T18:13:05+00:00,12.543394088745,3,versionB_stim.csv,ReadVersion.csv,Read,Read2,STRONG,ACCIDENT,Study2,U,39,25,Test,User,-,,Recall,Recall1,12122,accident,100,10765,11984,1,1,,1
63e57dfe078c526e4fb9d33f,9270oji3r5,"Mediated Recall_Prolific",1,74,2023-03-04T18:13:15+00:00,10.006749868393,3,versionB_stim.csv,ReadVersion.csv,Read,Read2,BLAZE,FIRE,Study2,F,26,49,Test,User,-,,Recall,Recall1,9768,fire,100,1215,1591,1,1,,1
63e57dfe078c526e4fb9d33f,9270oji3r5,"Mediated Recall_Prolific",1,75,2023-03-04T18:13:23+00:00,8.2084062099457,3,versionB_stim.csv,ReadVersion.csv,Read,Read2,SICK,HIDE,Study2,U,45,32,Test,User,-,,Recall,Recall1,7896,,0,-1,-1,0,0,,1
63e57dfe078c526e4fb9d33f,9270oji3r5,"Mediated Recall_Prolific",1,76,2023-03-04T18:13:29+00:00,5.8517649173737,3,versionB_stim.csv,ReadVersion.csv,Read,Read2,DEATH,BUSINESS,Study2,U,44,30,Test,User,-,,Recall,Recall1,5599,busy,50,3497,5115,0,0,,1
63e57dfe078c526e4fb9d33f,9270oji3r5,"Mediated Recall_Prolific",1,77,2023-03-04T18:13:32+00:00,2.6883599758148,3,versionB_stim.csv,ReadVersion.csv,Read,Read2,EYES,SMELL,Study2,M,10,45,Test,User,-,,Recall,Recall1,2453,smell,100,1820,2284,1,1,,1
63e57dfe078c526e4fb9d33f,9270oji3r5,"Mediated Recall_Prolific",1,78,2023-03-04T18:13:47+00:00,15.249918937683,3,versionB_stim.csv,ReadVersion.csv,Read,Read2,INCENSE,SMELL,Study2,F,28,38,Test,User,-,,Recall,Recall1,15014,smell,100,2722,14791,1,1,,1
63e57dfe078c526e4fb9d33f,9270oji3r5,"Mediated Recall_Prolific",1,79,2023-03-04T18:13:56+00:00,8.9110181331635,3,versionB_stim.csv,ReadVersion.csv,Read,Read2,LEASE,TOIL,Study2,U,46,51,Test,User,-,,Recall,Recall1,8659,,0,-1,-1,0,0,,1
63e57dfe078c526e4fb9d33f,9270oji3r5,"Mediated Recall_Prolific",1,80,2023-03-04T18:14:28+00:00,32.71994304657,3,versionB_stim.csv,ReadVersion.csv,Read,Read2,BENCH,HORN,Study2,U,43,21,Test,User,-,,Recall,Recall1,32349,,0,-1,-1,0,0,,1
63e57dfe078c526e4fb9d33f,9270oji3r5,"Mediated Recall_Prolific",1,81,2023-03-04T18:14:35+00:00,6.8935837745667,3,versionB_stim.csv,ReadVersion.csv,Read,Read2,DIETARY,SACK,Study2,U,42,27,Test,User,-,,Recall,Recall1,6590,snack,88.888888888889,5856,6300,0,1,,1
63e57dfe078c526e4fb9d33f,9270oji3r5,"Mediated Recall_Prolific",1,82,2023-03-04T18:14:48+00:00,13.004162073135,3,versionB_stim.csv,ReadVersion.csv,Read,Read2,RAZOR,MUSCLE,Study2,M,20,9,Test,User,-,,Recall,Recall1,12751,muscle,100,11993,12607,1,1,,1
63e57dfe078c526e4fb9d33f,9270oji3r5,"Mediated Recall_Prolific",1,83,2023-03-04T18:14:51+00:00,2.589821100235,3,versionB_stim.csv,ReadVersion.csv,Read,Read2,HERD,COW,Study2,F,33,41,Test,User,-,,Recall,Recall1,2336,cow,100,1378,1833,1,1,,1
63e57dfe078c526e4fb9d33f,9270oji3r5,"Mediated Recall_Prolific",1,84,2023-03-04T18:14:56+00:00,5.4921388626099,3,versionB_stim.csv,ReadVersion.csv,Read,Read2,REALITY,ISLAND,Study2,M,9,22,Test,User,-,,Recall,Recall1,5229,island,100,3638,5062,1,1,,1
63e57dfe078c526e4fb9d33f,9270oji3r5,"Mediated Recall_Prolific",1,85,2023-03-04T18:15:00+00:00,3.7808561325073,3,versionB_stim.csv,ReadVersion.csv,Read,Read2,PANTS,COLLAR,Study2,M,8,8,Test,User,-,,Recall,Recall1,3536,collar,100,1800,2419,1,1,,1
63e57dfe078c526e4fb9d33f,9270oji3r5,"Mediated Recall_Prolific",1,86,2023-03-04T18:15:02+00:00,1.4477319717407,3,versionB_stim.csv,ReadVersion.csv,Read,Read2,CHERRY,RED,Study2,F,25,50,Test,User,-,,Recall,Recall1,1200,red,100,875,1090,1,1,,1
63e57dfe078c526e4fb9d33f,9270oji3r5,"Mediated Recall_Prolific",1,87,2023-03-04T18:15:10+00:00,7.9563529491425,3,versionB_stim.csv,ReadVersion.csv,Read,Read2,PUSH,CLUTTER,Study2,U,41,7,Test,User,-,,Recall,Recall1,7714,pull,18.181818181818,5984,6496,0,0,,1
63e57dfe078c526e4fb9d33f,9270oji3r5,"Mediated Recall_Prolific",1,88,2023-03-04T18:15:20+00:00,9.9563760757446,3,versionB_stim.csv,ReadVersion.csv,Read,Read2,ATTIRE,CLOTHES,Study2,F,24,14,Test,User,-,,Recall,Recall1,9720,clothing,66.666666666667,2105,3225,0,0,,1
63e57dfe078c526e4fb9d33f,9270oji3r5,"Mediated Recall_Prolific",1,89,2023-03-04T18:15:24+00:00,4.0476109981537,3,versionB_stim.csv,ReadVersion.csv,Read,Read2,SCHOOL,STOP,Study2,M,7,10,Test,User,-,,Recall,Recall1,3740,stop,100,2196,2510,1,1,,1
63e57dfe078c526e4fb9d33f,9270oji3r5,"Mediated Recall_Prolific",1,90,2023-03-04T18:15:31+00:00,6.9593138694763,3,versionB_stim.csv,ReadVersion.csv,Read,Read2,SUGAR,RIDDLE,Study2,U,40,29,Test,User,-,,Recall,Recall1,6706,,0,-1,-1,0,0,,1
63e57dfe078c526e4fb9d33f,9270oji3r5,"Mediated Recall_Prolific",1,91,2023-03-04T18:15:37+00:00,6.0551810264587,3,versionB_stim.csv,ReadVersion.csv,Read,Read2,MIRROR,CHILDREN,Study2,U,49,34,Test,User,-,,Recall,Recall1,5749,children,100,2364,5532,1,1,,1
63e57dfe078c526e4fb9d33f,9270oji3r5,"Mediated Recall_Prolific",1,92,2023-03-04T18:15:39+00:00,2.5494689941406,3,versionB_stim.csv,ReadVersion.csv,Read,Read2,GRILL,THIGH,Study2,M,17,33,Test,User,-,,Recall,Recall1,2285,thigh,100,1354,2085,1,1,,1
63e57dfe078c526e4fb9d33f,9270oji3r5,"Mediated Recall_Prolific",1,93,2023-03-04T18:15:49+00:00,10.046115159988,3,versionB_stim.csv,ReadVersion.csv,Read,Read2,ARTERY,BRONZE,Study2,U,48,39,Test,User,-,,Recall,Recall1,9779,,0,-1,-1,0,0,,1
63e57dfe078c526e4fb9d33f,9270oji3r5,"Mediated Recall_Prolific",1,94,2023-03-04T18:15:59+00:00,9.7160840034485,3,versionB_stim.csv,ReadVersion.csv,Read,Read2,CHILL,COLD,Study2,F,32,12,Test,User,-,,Recall,Recall1,9287,cold,100,8711,9175,1,1,,1
63e57dfe078c526e4fb9d33f,9270oji3r5,"Mediated Recall_Prolific",1,95,2023-03-04T18:16:19+00:00,19.997741937637,3,versionB_stim.csv,ReadVersion.csv,Read,Read2,SUMMER,SNOW,Study2,M,6,44,Test,User,-,,Recall,Recall1,19750,snow,100,3037,3243,1,1,,1
63e57dfe078c526e4fb9d33f,9270oji3r5,"Mediated Recall_Prolific",1,96,2023-03-04T18:16:28+00:00,9.1843018531799,3,versionB_stim.csv,ReadVersion.csv,Read,Read2,FEUD,FIGHT,Study2,F,31,36,Test,User,-,,Recall,Recall1,8759,fight,100,7818,8635,1,1,,1
63e57dfe078c526e4fb9d33f,9270oji3r5,"Mediated Recall_Prolific",1,97,2023-03-04T18:16:37+00:00,9.3664631843567,3,versionB_stim.csv,ReadVersion.csv,Read,Read2,TRAP,CAVE,Study2,M,15,18,Test,User,-,,Recall,Recall1,9117,cave,100,8324,8752,1,1,,1
63e57dfe078c526e4fb9d33f,9270oji3r5,"Mediated Recall_Prolific",1,98,2023-03-04T18:16:44+00:00,6.538195848465,3,versionB_stim.csv,ReadVersion.csv,Read,Read2,DOCUMENT,PAPER,Study2,F,27,46,Test,User,-,,Recall,Recall1,6215,paper,100,5309,5642,1,1,,1
63e57dfe078c526e4fb9d33f,9270oji3r5,"Mediated Recall_Prolific",1,99,2023-03-04T18:16:46+00:00,2.2838201522827,3,versionB_stim.csv,ReadVersion.csv,Read,Read2,CHISEL,HAMMER,Study2,F,23,37,Test,User,-,,Recall,Recall1,2045,hammer,100,1479,1911,1,1,,1
63e57dfe078c526e4fb9d33f,9270oji3r5,"Mediated Recall_Prolific",1,100,2023-03-04T18:16:49+00:00,2.4524409770966,3,versionB_stim.csv,ReadVersion.csv,Read,Read2,LEAGUE,BASEBALL,Study2,F,29,13,Test,User,-,,Recall,Recall1,2185,baseball,100,1002,1884,1,1,,1
63e57dfe078c526e4fb9d33f,9270oji3r5,"Mediated Recall_Prolific",1,101,2023-03-04T18:17:00+00:00,11.165194034576,3,versionB_stim.csv,ReadVersion.csv,Read,Read2,NURSE,LAWYER,Study2,M,11,15,Test,User,-,,Recall,Recall1,10924,lawyer,100,9977,10837,1,1,,1
63e57dfe078c526e4fb9d33f,9270oji3r5,"Mediated Recall_Prolific",1,102,2023-03-04T18:17:07+00:00,7.4818849563599,3,versionB_stim.csv,ReadVersion.csv,Read,Read2,KING,VASE,Study2,U,36,20,Test,User,-,,Recall,Recall1,7228,vase,100,6530,7107,1,1,,1
63e57dfe078c526e4fb9d33f,9270oji3r5,"Mediated Recall_Prolific",1,103,2023-03-04T18:17:15+00:00,7.8580539226532,3,versionB_stim.csv,ReadVersion.csv,Read,Read2,CASH,LEG,Study2,U,50,42,Test,User,-,,Recall,Recall1,7509,money,25,6530,7073,0,0,,1
63e57dfe078c526e4fb9d33f,9270oji3r5,"Mediated Recall_Prolific",1,104,2023-03-04T18:17:21+00:00,6.0363709926605,3,versionB_stim.csv,ReadVersion.csv,Read,Read2,SOAP,DRINK,Study2,M,12,16,Test,User,-,,Recall,Recall1,5724,drink,100,4738,5557,1,1,,1
63e57dfe078c526e4fb9d33f,9270oji3r5,"Mediated Recall_Prolific",1,105,2023-03-04T18:17:28+00:00,7.0956950187683,3,versionB_stim.csv,ReadVersion.csv,Read,Read2,CHOP,CUT,Study2,F,22,19,Test,User,-,,Recall,Recall1,6840,cut,100,6375,6747,1,1,,1
63e57dfe078c526e4fb9d33f,9270oji3r5,"Mediated Recall_Prolific",1,106,2023-03-04T18:17:45+00:00,16.857684135437,3,versionB_stim.csv,ReadVersion.csv,Read,Read2,,,,,,0,Instruct,-,10,"You will now be presented with a new set of word pairs. Please study each pair. Remember that your memory will be tested! When finished, press Enter to move to the next pair.",Initial_Instruct,Instruct4,16608,,,-1,-1,,,,1
63e57dfe078c526e4fb9d33f,9270oji3r5,"Mediated Recall_Prolific",1,107,2023-03-04T18:17:47+00:00,1.4674029350281,3,versionB_stim.csv,ReadVersion.csv,Read,Read2,,,,,,0,Instruct,User,-,"Press Enter when you are readty to begin",,Instruct11,1149,,,-1,-1,,,,1
63e57dfe078c526e4fb9d33f,9270oji3r5,"Mediated Recall_Prolific",1,108,2023-03-04T18:17:52+00:00,4.8538389205933,3,versionB_stim.csv,ReadVersion.csv,Read,Read2,SCARE,FRIGHT,BUFFER1,Buffer,59,58,Study,User,-,,Study/JOL,BUFFER2,4581,,,-1,-1,,,,1
63e57dfe078c526e4fb9d33f,9270oji3r5,"Mediated Recall_Prolific",1,109,2023-03-04T18:17:56+00:00,4.8538539409637,3,versionB_stim.csv,ReadVersion.csv,Read,Read2,THING,STUFF,BUFFER2,Buffer,110,107,Study,User,-,,Study/JOL,BUFFER2,3891,,,-1,-1,,,,1
63e57dfe078c526e4fb9d33f,9270oji3r5,"Mediated Recall_Prolific",1,110,2023-03-04T18:18:04+00:00,7.2979121208191,3,versionB_stim.csv,ReadVersion.csv,Read,Read2,CAMP,ADVENTURE,BUFFER4,Buffer,55,53,Study,User,-,,Study/JOL,BUFFER2,6781,,,-1,-1,,,,1
63e57dfe078c526e4fb9d33f,9270oji3r5,"Mediated Recall_Prolific",1,111,2023-03-04T18:18:07+00:00,3.65403008461,3,versionB_stim.csv,ReadVersion.csv,Read,Read2,GEESE,GOOSE,BUFFER2,Buffer,106,109,Study,User,-,,Study/JOL,BUFFER2,3394,,,-1,-1,,,,1
63e57dfe078c526e4fb9d33f,9270oji3r5,"Mediated Recall_Prolific",1,112,2023-03-04T18:18:13+00:00,6.023090839386,3,versionB_stim.csv,ReadVersion.csv,Read,Read2,TREES,GREEN,BUFFER1,Buffer,56,61,Study,User,-,,Study/JOL,BUFFER2,5751,,,-1,-1,,,,1
63e57dfe078c526e4fb9d33f,9270oji3r5,"Mediated Recall_Prolific",1,113,2023-03-04T18:18:17+00:00,3.831531047821,3,versionB_stim.csv,ReadVersion.csv,Read,Read2,WAGE,MONEY,Study1,F,77,104,Study,User,-,,Study/JOL,"Study Phase2",3583,,,-1,-1,,,,1
63e57dfe078c526e4fb9d33f,9270oji3r5,"Mediated Recall_Prolific",1,114,2023-03-04T18:18:23+00:00,5.5134289264679,3,versionB_stim.csv,ReadVersion.csv,Read,Read2,VEHICLE,CHARM,Study1,U,95,78,Study,User,-,,Study/JOL,"Study Phase2",5230,,,-1,-1,,,,1
63e57dfe078c526e4fb9d33f,9270oji3r5,"Mediated Recall_Prolific",1,115,2023-03-04T18:18:26+00:00,3.7034511566162,3,versionB_stim.csv,ReadVersion.csv,Read,Read2,SWAN,BIRD,Study1,F,81,62,Study,User,-,,Study/JOL,"Study Phase2",3374,,,-1,-1,,,,1
63e57dfe078c526e4fb9d33f,9270oji3r5,"Mediated Recall_Prolific",1,116,2023-03-04T18:18:33+00:00,6.5661239624023,3,versionB_stim.csv,ReadVersion.csv,Read,Read2,TEMPERATURE,MORNING,Study1,U,103,89,Study,User,-,,Study/JOL,"Study Phase2",6280,,,-1,-1,,,,1
63e57dfe078c526e4fb9d33f,9270oji3r5,"Mediated Recall_Prolific",1,117,2023-03-04T18:18:36+00:00,3.5346970558167,3,versionB_stim.csv,ReadVersion.csv,Read,Read2,ROOT,PLANT,Study1,F,80,100,Study,User,-,,Study/JOL,"Study Phase2",3284,,,-1,-1,,,,1
63e57dfe078c526e4fb9d33f,9270oji3r5,"Mediated Recall_Prolific",1,118,2023-03-04T18:18:40+00:00,3.8400409221649,3,versionB_stim.csv,ReadVersion.csv,Read,Read2,SOON,BELT,Study1,U,101,97,Study,User,-,,Study/JOL,"Study Phase2",3596,,,-1,-1,,,,1
63e57dfe078c526e4fb9d33f,9270oji3r5,"Mediated Recall_Prolific",1,119,2023-03-04T18:18:47+00:00,6.7918109893799,3,versionB_stim.csv,ReadVersion.csv,Read,Read2,TREE,SYRUP,Study1,M,66,73,Study,User,-,,Study/JOL,"Study Phase2",6547,,,-1,-1,,,,1
63e57dfe078c526e4fb9d33f,9270oji3r5,"Mediated Recall_Prolific",1,120,2023-03-04T18:18:50+00:00,3.3387339115143,3,versionB_stim.csv,ReadVersion.csv,Read,Read2,DAY,DARK,Study1,M,73,85,Study,User,-,,Study/JOL,"Study Phase2",3031,,,-1,-1,,,,1
63e57dfe078c526e4fb9d33f,9270oji3r5,"Mediated Recall_Prolific",1,121,2023-03-04T18:18:56+00:00,5.180055141449,3,versionB_stim.csv,ReadVersion.csv,Read,Read2,HYGIENE,CLEAN,Study1,F,83,74,Study,User,-,,Study/JOL,"Study Phase2",4928,,,-1,-1,,,,1
63e57dfe078c526e4fb9d33f,9270oji3r5,"Mediated Recall_Prolific",1,122,2023-03-04T18:19:01+00:00,5.2274758815765,3,versionB_stim.csv,ReadVersion.csv,Read,Read2,CRACKLE,ELECTION,Study1,U,94,71,Study,User,-,,Study/JOL,"Study Phase2",4995,,,-1,-1,,,,1
63e57dfe078c526e4fb9d33f,9270oji3r5,"Mediated Recall_Prolific",1,123,2023-03-04T18:19:06+00:00,5.0815441608429,3,versionB_stim.csv,ReadVersion.csv,Read,Read2,WEDDING,FINGER,Study1,M,72,96,Study,User,-,,Study/JOL,"Study Phase2",4853,,,-1,-1,,,,1
63e57dfe078c526e4fb9d33f,9270oji3r5,"Mediated Recall_Prolific",1,124,2023-03-04T18:19:10+00:00,4.4306428432465,3,versionB_stim.csv,ReadVersion.csv,Read,Read2,CEILING,CARPET,Study1,M,70,76,Study,User,-,,Study/JOL,"Study Phase2",4070,,,-1,-1,,,,1
63e57dfe078c526e4fb9d33f,9270oji3r5,"Mediated Recall_Prolific",1,125,2023-03-04T18:19:14+00:00,3.6932089328766,3,versionB_stim.csv,ReadVersion.csv,Read,Read2,CREDIT,CARD,Study1,F,88,63,Study,User,-,,Study/JOL,"Study Phase2",3431,,,-1,-1,,,,1
63e57dfe078c526e4fb9d33f,9270oji3r5,"Mediated Recall_Prolific",1,126,2023-03-04T18:19:17+00:00,3.2884981632233,3,versionB_stim.csv,ReadVersion.csv,Read,Read2,HARD,COTTON,Study1,M,75,80,Study,User,-,,Study/JOL,"Study Phase2",2985,,,-1,-1,,,,1
63e57dfe078c526e4fb9d33f,9270oji3r5,"Mediated Recall_Prolific",1,127,2023-03-04T18:19:21+00:00,3.5062229633331,3,versionB_stim.csv,ReadVersion.csv,Read,Read2,MEAT,KEYS,Study1,U,96,81,Study,User,-,,Study/JOL,"Study Phase2",3260,,,-1,-1,,,,1
63e57dfe078c526e4fb9d33f,9270oji3r5,"Mediated Recall_Prolific",1,128,2023-03-04T18:19:25+00:00,3.7400939464569,3,versionB_stim.csv,ReadVersion.csv,Read,Read2,LION,STRIPES,Study1,M,61,103,Study,User,-,,Study/JOL,"Study Phase2",3471,,,-1,-1,,,,1
63e57dfe078c526e4fb9d33f,9270oji3r5,"Mediated Recall_Prolific",1,129,2023-03-04T18:19:28+00:00,3.3868050575256,3,versionB_stim.csv,ReadVersion.csv,Read,Read2,MAZE,PHONE,Study1,U,97,67,Study,User,-,,Study/JOL,"Study Phase2",3126,,,-1,-1,,,,1
63e57dfe078c526e4fb9d33f,9270oji3r5,"Mediated Recall_Prolific",1,130,2023-03-04T18:19:34+00:00,5.7013020515442,3,versionB_stim.csv,ReadVersion.csv,Read,Read2,SIP,DRINK,Study1,F,87,93,Study,User,-,,Study/JOL,"Study Phase2",5468,,,-1,-1,,,,1
63e57dfe078c526e4fb9d33f,9270oji3r5,"Mediated Recall_Prolific",1,131,2023-03-04T18:19:39+00:00,5.2386560440063,3,versionB_stim.csv,ReadVersion.csv,Read,Read2,KEYS,ROD,Study1,U,100,77,Study,User,-,,Study/JOL,"Study Phase2",4967,,,-1,-1,,,,1
63e57dfe078c526e4fb9d33f,9270oji3r5,"Mediated Recall_Prolific",1,132,2023-03-04T18:19:43+00:00,4.0570437908173,3,versionB_stim.csv,ReadVersion.csv,Read,Read2,MIRROR,MAROON,Study1,U,91,68,Study,User,-,,Study/JOL,"Study Phase2",3819,,,-1,-1,,,,1
63e57dfe078c526e4fb9d33f,9270oji3r5,"Mediated Recall_Prolific",1,133,2023-03-04T18:19:46+00:00,3.4863710403442,3,versionB_stim.csv,ReadVersion.csv,Read,Read2,TOOTH,HAIR,Study1,M,74,101,Study,User,-,,Study/JOL,"Study Phase2",3240,,,-1,-1,,,,1
63e57dfe078c526e4fb9d33f,9270oji3r5,"Mediated Recall_Prolific",1,134,2023-03-04T18:19:50+00:00,3.9584879875183,3,versionB_stim.csv,ReadVersion.csv,Read,Read2,WAR,QUIET,Study1,M,63,106,Study,User,-,,Study/JOL,"Study Phase2",3677,,,-1,-1,,,,1
63e57dfe078c526e4fb9d33f,9270oji3r5,"Mediated Recall_Prolific",1,135,2023-03-04T18:19:55+00:00,4.9118871688843,3,versionB_stim.csv,ReadVersion.csv,Read,Read2,CIRCLE,DANCE,Study1,M,68,87,Study,User,-,,Study/JOL,"Study Phase2",4557,,,-1,-1,,,,1
63e57dfe078c526e4fb9d33f,9270oji3r5,"Mediated Recall_Prolific",1,136,2023-03-04T18:19:59+00:00,3.8897190093994,3,versionB_stim.csv,ReadVersion.csv,Read,Read2,FUZZY,BANG,Study1,U,105,91,Study,User,-,,Study/JOL,"Study Phase2",3655,,,-1,-1,,,,1
63e57dfe078c526e4fb9d33f,9270oji3r5,"Mediated Recall_Prolific",1,137,2023-03-04T18:20:03+00:00,3.6130909919739,3,versionB_stim.csv,ReadVersion.csv,Read,Read2,BAT,BOUNCE,Study1,M,67,83,Study,User,-,,Study/JOL,"Study Phase2",3274,,,-1,-1,,,,1
63e57dfe078c526e4fb9d33f,9270oji3r5,"Mediated Recall_Prolific",1,138,2023-03-04T18:20:06+00:00,3.3382048606873,3,versionB_stim.csv,ReadVersion.csv,Read,Read2,CRY,BOTTLE,Study1,M,71,95,Study,User,-,,Study/JOL,"Study Phase2",3076,,,-1,-1,,,,1
63e57dfe078c526e4fb9d33f,9270oji3r5,"Mediated Recall_Prolific",1,139,2023-03-04T18:20:10+00:00,3.8297951221466,3,versionB_stim.csv,ReadVersion.csv,Read,Read2,SIGN,TICK,Study1,U,102,82,Study,User,-,,Study/JOL,"Study Phase2",3579,,,-1,-1,,,,1
63e57dfe078c526e4fb9d33f,9270oji3r5,"Mediated Recall_Prolific",1,140,2023-03-04T18:20:14+00:00,3.8106548786163,3,versionB_stim.csv,ReadVersion.csv,Read,Read2,ROUGH,SILK,Study1,M,65,102,Study,User,-,,Study/JOL,"Study Phase2",3567,,,-1,-1,,,,1
63e57dfe078c526e4fb9d33f,9270oji3r5,"Mediated Recall_Prolific",1,141,2023-03-04T18:20:17+00:00,3.505481004715,3,versionB_stim.csv,ReadVersion.csv,Read,Read2,GIVE,STEAK,Study1,U,93,94,Study,User,-,,Study/JOL,"Study Phase2",3238,,,-1,-1,,,,1
63e57dfe078c526e4fb9d33f,9270oji3r5,"Mediated Recall_Prolific",1,142,2023-03-04T18:20:21+00:00,3.8808720111847,3,versionB_stim.csv,ReadVersion.csv,Read,Read2,HORSE,WHEEL,Study1,M,69,65,Study,User,-,,Study/JOL,"Study Phase2",3624,,,-1,-1,,,,1
63e57dfe078c526e4fb9d33f,9270oji3r5,"Mediated Recall_Prolific",1,143,2023-03-04T18:20:25+00:00,3.6321051120758,3,versionB_stim.csv,ReadVersion.csv,Read,Read2,NAP,SLEEP,Study1,F,84,98,Study,User,-,,Study/JOL,"Study Phase2",3266,,,-1,-1,,,,1
63e57dfe078c526e4fb9d33f,9270oji3r5,"Mediated Recall_Prolific",1,144,2023-03-04T18:20:29+00:00,3.6529037952423,3,versionB_stim.csv,ReadVersion.csv,Read,Read2,CAKE,HAND,Study1,U,104,75,Study,User,-,,Study/JOL,"Study Phase2",3378,,,-1,-1,,,,1
63e57dfe078c526e4fb9d33f,9270oji3r5,"Mediated Recall_Prolific",1,145,2023-03-04T18:20:34+00:00,5.3341522216797,3,versionB_stim.csv,ReadVersion.csv,Read,Read2,AFFECTION,LOVE,Study1,F,86,79,Study,User,-,,Study/JOL,"Study Phase2",4871,,,-1,-1,,,,1
63e57dfe078c526e4fb9d33f,9270oji3r5,"Mediated Recall_Prolific",1,146,2023-03-04T18:20:37+00:00,3.3580279350281,3,versionB_stim.csv,ReadVersion.csv,Read,Read2,SHELL,SHAKE,Study1,U,98,64,Study,User,-,,Study/JOL,"Study Phase2",2986,,,-1,-1,,,,1
63e57dfe078c526e4fb9d33f,9270oji3r5,"Mediated Recall_Prolific",1,147,2023-03-04T18:20:44+00:00,6.4971239566803,3,versionB_stim.csv,ReadVersion.csv,Read,Read2,BIRTHDAY,PIE,Study1,M,64,69,Study,User,-,,Study/JOL,"Study Phase2",6248,,,-1,-1,,,,1
63e57dfe078c526e4fb9d33f,9270oji3r5,"Mediated Recall_Prolific",1,148,2023-03-04T18:20:48+00:00,4.4992299079895,3,versionB_stim.csv,ReadVersion.csv,Read,Read2,ORCHID,FLOWER,Study1,F,89,92,Study,User,-,,Study/JOL,"Study Phase2",4244,,,-1,-1,,,,1
63e57dfe078c526e4fb9d33f,9270oji3r5,"Mediated Recall_Prolific",1,149,2023-03-04T18:20:53+00:00,4.8642749786377,3,versionB_stim.csv,ReadVersion.csv,Read,Read2,LITTER,TRASH,Study1,F,76,86,Study,User,-,,Study/JOL,"Study Phase2",4621,,,-1,-1,,,,1
63e57dfe078c526e4fb9d33f,9270oji3r5,"Mediated Recall_Prolific",1,150,2023-03-04T18:20:57+00:00,4.3237380981445,3,versionB_stim.csv,ReadVersion.csv,Read,Read2,MULE,DONKEY,Study1,F,79,66,Study,User,-,,Study/JOL,"Study Phase2",4010,,,-1,-1,,,,1
63e57dfe078c526e4fb9d33f,9270oji3r5,"Mediated Recall_Prolific",1,151,2023-03-04T18:21:02+00:00,4.212690114975,3,versionB_stim.csv,ReadVersion.csv,Read,Read2,STRETCH,CLOTH,Study1,U,92,105,Study,User,-,,Study/JOL,"Study Phase2",3968,,,-1,-1,,,,1
63e57dfe078c526e4fb9d33f,9270oji3r5,"Mediated Recall_Prolific",1,152,2023-03-04T18:21:05+00:00,3.7216289043427,3,versionB_stim.csv,ReadVersion.csv,Read,Read2,SCALP,HEAD,Study1,F,78,70,Study,User,-,,Study/JOL,"Study Phase2",3450,,,-1,-1,,,,1
63e57dfe078c526e4fb9d33f,9270oji3r5,"Mediated Recall_Prolific",1,153,2023-03-04T18:21:09+00:00,3.4658179283142,3,versionB_stim.csv,ReadVersion.csv,Read,Read2,TUNA,FISH,Study1,F,90,90,Study,User,-,,Study/JOL,"Study Phase2",3181,,,-1,-1,,,,1
63e57dfe078c526e4fb9d33f,9270oji3r5,"Mediated Recall_Prolific",1,154,2023-03-04T18:21:13+00:00,3.7318201065063,3,versionB_stim.csv,ReadVersion.csv,Read,Read2,BEACH,BOX,Study1,M,62,88,Study,User,-,,Study/JOL,"Study Phase2",3452,,,-1,-1,,,,1
63e57dfe078c526e4fb9d33f,9270oji3r5,"Mediated Recall_Prolific",1,155,2023-03-04T18:21:17+00:00,4.2447419166565,3,versionB_stim.csv,ReadVersion.csv,Read,Read2,LISTEN,FICTION,Study1,U,99,99,Study,User,-,,Study/JOL,"Study Phase2",4011,,,-1,-1,,,,1
63e57dfe078c526e4fb9d33f,9270oji3r5,"Mediated Recall_Prolific",1,156,2023-03-04T18:21:22+00:00,5.5748009681702,3,versionB_stim.csv,ReadVersion.csv,Read,Read2,MULE,DONKEY,Study1,F,85,84,Study,User,-,,Study/JOL,"Study Phase2",5345,,,-1,-1,,,,1
63e57dfe078c526e4fb9d33f,9270oji3r5,"Mediated Recall_Prolific",1,157,2023-03-04T18:21:26+00:00,3.73264503479,3,versionB_stim.csv,ReadVersion.csv,Read,Read2,WORD,SENTENCE,Study1,F,82,72,Study,User,-,,Study/JOL,"Study Phase2",3457,,,-1,-1,,,,1
63e57dfe078c526e4fb9d33f,9270oji3r5,"Mediated Recall_Prolific",1,158,2023-03-04T18:21:32+00:00,6.418848991394,3,versionB_stim.csv,ReadVersion.csv,Read,Read2,MOON,SPACE,BUFFER2,Buffer,109,110,Study,User,-,,Study/JOL,BUFFER2,6173,,,-1,-1,,,,1
63e57dfe078c526e4fb9d33f,9270oji3r5,"Mediated Recall_Prolific",1,159,2023-03-04T18:21:38+00:00,5.5244469642639,3,versionB_stim.csv,ReadVersion.csv,Read,Read2,NOODLE,STRING,BUFFER4,Buffer,52,55,Study,User,-,,Study/JOL,BUFFER2,5268,,,-1,-1,,,,1
63e57dfe078c526e4fb9d33f,9270oji3r5,"Mediated Recall_Prolific",1,160,2023-03-04T18:21:45+00:00,6.9868860244751,3,versionB_stim.csv,ReadVersion.csv,Read,Read2,SHRIMP,FISH,BUFFER4,Buffer,53,54,Study,User,-,,Study/JOL,BUFFER2,6730,,,-1,-1,,,,1
63e57dfe078c526e4fb9d33f,9270oji3r5,"Mediated Recall_Prolific",1,161,2023-03-04T18:21:51+00:00,5.5461239814758,3,versionB_stim.csv,ReadVersion.csv,Read,Read2,SPACE,JAM,BUFFER1,Buffer,60,59,Study,User,-,,Study/JOL,BUFFER2,5283,,,-1,-1,,,,1
63e57dfe078c526e4fb9d33f,9270oji3r5,"Mediated Recall_Prolific",1,162,2023-03-04T18:21:55+00:00,4.8152091503143,3,versionB_stim.csv,ReadVersion.csv,Read,Read2,MALT,CHOCOLATE,BUFFER2,Buffer,108,108,Study,User,-,,Study/JOL,BUFFER2,4562,,,-1,-1,,,,1
63e57dfe078c526e4fb9d33f,9270oji3r5,"Mediated Recall_Prolific",1,163,2023-03-04T18:21:58+00:00,2.3331279754639,3,versionB_stim.csv,ReadVersion.csv,Read,Read2,,,,,,0,Instruct,User,-,"You have completed this section. Please press Enter.",Filler_Instruction,Instruct2,2043,,,-1,-1,,,,1
63e57dfe078c526e4fb9d33f,9270oji3r5,"Mediated Recall_Prolific",1,164,2023-03-04T18:23:58+00:00,120.50566291809,3,versionB_stim.csv,ReadVersion.csv,Read,Read2,,,,,,0,FreeRecall,120,120,"Please list the 50 US states in alphabetical order. The task will automatically advance to the next screen after two minutes.",,Filler1,120002,"alabama arkansas alaska california connecticut delaware florida georgia hawaii idaho illinois indiana iowa kansas louisiana maryland massachusetts missouri montana new ",0,3096,116832,0,0,,1
63e57dfe078c526e4fb9d33f,9270oji3r5,"Mediated Recall_Prolific",1,165,2023-03-04T18:24:09+00:00,10.959501028061,3,versionB_stim.csv,ReadVersion.csv,Read,Read2,,,,,,0,Instruct,-,10,"You will now be presented with the first word from each of the previously studied item pairs. Please type the missing word. If you do not know the word, you may guess or press Enter to skip forward to the next pair.",,Instruct3,10666,,,-1,-1,,,,1
63e57dfe078c526e4fb9d33f,9270oji3r5,"Mediated Recall_Prolific",1,166,2023-03-04T18:24:12+00:00,3.1806519031525,3,versionB_stim.csv,ReadVersion.csv,Read,Read2,SWAN,BIRD,Study1,F,81,62,Test,User,-,,Recall,Recall2,2899,bird,100,1639,2728,1,1,,1
63e57dfe078c526e4fb9d33f,9270oji3r5,"Mediated Recall_Prolific",1,167,2023-03-04T18:24:16+00:00,3.2967751026154,3,versionB_stim.csv,ReadVersion.csv,Read,Read2,LION,STRIPES,Study1,M,61,103,Test,User,-,,Recall,Recall2,3074,stripes,100,1659,2932,1,1,,1
63e57dfe078c526e4fb9d33f,9270oji3r5,"Mediated Recall_Prolific",1,168,2023-03-04T18:24:31+00:00,15.753330945969,3,versionB_stim.csv,ReadVersion.csv,Read,Read2,ROUGH,SILK,Study1,M,65,102,Test,User,-,,Recall,Recall2,15374,silk,100,14518,15164,1,1,,1
63e57dfe078c526e4fb9d33f,9270oji3r5,"Mediated Recall_Prolific",1,169,2023-03-04T18:24:33+00:00,1.7337970733643,3,versionB_stim.csv,ReadVersion.csv,Read,Read2,ORCHID,FLOWER,Study1,F,89,92,Test,User,-,,Recall,Recall2,1458,flower,100,902,1303,1,1,,1
63e57dfe078c526e4fb9d33f,9270oji3r5,"Mediated Recall_Prolific",1,170,2023-03-04T18:24:37+00:00,3.8096299171448,3,versionB_stim.csv,ReadVersion.csv,Read,Read2,SHELL,SHAKE,Study1,U,98,64,Test,User,-,,Recall,Recall2,3557,shake,100,2815,3432,1,1,,1
63e57dfe078c526e4fb9d33f,9270oji3r5,"Mediated Recall_Prolific",1,171,2023-03-04T18:24:46+00:00,9.4133710861206,3,versionB_stim.csv,ReadVersion.csv,Read,Read2,TEMPERATURE,MORNING,Study1,U,103,89,Test,User,-,,Recall,Recall2,9143,morning,100,6202,8991,1,1,,1
63e57dfe078c526e4fb9d33f,9270oji3r5,"Mediated Recall_Prolific",1,172,2023-03-04T18:24:52+00:00,5.8112668991089,3,versionB_stim.csv,ReadVersion.csv,Read,Read2,CEILING,CARPET,Study1,M,70,76,Test,User,-,,Recall,Recall2,5549,carpet,100,4095,5442,1,1,,1
63e57dfe078c526e4fb9d33f,9270oji3r5,"Mediated Recall_Prolific",1,173,2023-03-04T18:25:06+00:00,13.371653079987,3,versionB_stim.csv,ReadVersion.csv,Read,Read2,BAT,BOUNCE,Study1,M,67,83,Test,User,-,,Recall,Recall2,13116,,0,-1,-1,0,0,,1
63e57dfe078c526e4fb9d33f,9270oji3r5,"Mediated Recall_Prolific",1,174,2023-03-04T18:25:14+00:00,8.1326010227203,3,versionB_stim.csv,ReadVersion.csv,Read,Read2,VEHICLE,CHARM,Study1,U,95,78,Test,User,-,,Recall,Recall2,7727,,0,-1,-1,0,0,,1
63e57dfe078c526e4fb9d33f,9270oji3r5,"Mediated Recall_Prolific",1,175,2023-03-04T18:25:22+00:00,8.2121329307556,3,versionB_stim.csv,ReadVersion.csv,Read,Read2,WORD,SENTENCE,Study1,F,82,72,Test,User,-,,Recall,Recall2,7959,sentence,100,6701,7785,1,1,,1
63e57dfe078c526e4fb9d33f,9270oji3r5,"Mediated Recall_Prolific",1,176,2023-03-04T18:25:30+00:00,8.3956069946289,3,versionB_stim.csv,ReadVersion.csv,Read,Read2,WEDDING,FINGER,Study1,M,72,96,Test,User,-,,Recall,Recall2,8140,finger,100,7495,8066,1,1,,1
63e57dfe078c526e4fb9d33f,9270oji3r5,"Mediated Recall_Prolific",1,177,2023-03-04T18:25:36+00:00,6.1958620548248,3,versionB_stim.csv,ReadVersion.csv,Read,Read2,SOON,BELT,Study1,U,101,97,Test,User,-,,Recall,Recall2,5926,later,44.444444444444,5399,5748,0,0,,1
63e57dfe078c526e4fb9d33f,9270oji3r5,"Mediated Recall_Prolific",1,178,2023-03-04T18:25:40+00:00,3.8686969280243,3,versionB_stim.csv,ReadVersion.csv,Read,Read2,AFFECTION,LOVE,Study1,F,86,79,Test,User,-,,Recall,Recall2,3586,love,100,2982,3286,1,1,,1
63e57dfe078c526e4fb9d33f,9270oji3r5,"Mediated Recall_Prolific",1,179,2023-03-04T18:25:45+00:00,4.7559430599213,3,versionB_stim.csv,ReadVersion.csv,Read,Read2,HARD,COTTON,Study1,M,75,80,Test,User,-,,Recall,Recall2,4504,cotton,100,3852,4336,1,1,,1
63e57dfe078c526e4fb9d33f,9270oji3r5,"Mediated Recall_Prolific",1,180,2023-03-04T18:25:55+00:00,10.110152006149,3,versionB_stim.csv,ReadVersion.csv,Read,Read2,MIRROR,MAROON,Study1,U,91,68,Test,User,-,,Recall,Recall2,9844,reflect,15.384615384615,8434,9200,0,0,,1
63e57dfe078c526e4fb9d33f,9270oji3r5,"Mediated Recall_Prolific",1,181,2023-03-04T18:26:07+00:00,12.280965089798,3,versionB_stim.csv,ReadVersion.csv,Read,Read2,LITTER,TRASH,Study1,F,76,86,Test,User,-,,Recall,Recall2,11975,trash,100,2681,3142,1,1,,1
63e57dfe078c526e4fb9d33f,9270oji3r5,"Mediated Recall_Prolific",1,182,2023-03-04T18:26:12+00:00,4.2619869709015,3,versionB_stim.csv,ReadVersion.csv,Read,Read2,LISTEN,FICTION,Study1,U,99,99,Test,User,-,,Recall,Recall2,3955,fiction,100,2865,3726,1,1,,1
63e57dfe078c526e4fb9d33f,9270oji3r5,"Mediated Recall_Prolific",1,183,2023-03-04T18:26:24+00:00,12.6326379776,3,versionB_stim.csv,ReadVersion.csv,Read,Read2,ROOT,PLANT,Study1,F,80,100,Test,User,-,,Recall,Recall2,12303,plant,100,11694,12168,1,1,,1
63e57dfe078c526e4fb9d33f,9270oji3r5,"Mediated Recall_Prolific",1,184,2023-03-04T18:26:26+00:00,1.9115369319916,3,versionB_stim.csv,ReadVersion.csv,Read,Read2,NAP,SLEEP,Study1,F,84,98,Test,User,-,,Recall,Recall2,1646,sleep,100,978,1417,1,1,,1
63e57dfe078c526e4fb9d33f,9270oji3r5,"Mediated Recall_Prolific",1,185,2023-03-04T18:26:28+00:00,1.6432089805603,3,versionB_stim.csv,ReadVersion.csv,Read,Read2,CREDIT,CARD,Study1,F,88,63,Test,User,-,,Recall,Recall2,1356,card,100,903,1227,1,1,,1
63e57dfe078c526e4fb9d33f,9270oji3r5,"Mediated Recall_Prolific",1,186,2023-03-04T18:26:34+00:00,6.2620551586151,3,versionB_stim.csv,ReadVersion.csv,Read,Read2,TOOTH,HAIR,Study1,M,74,101,Test,User,-,,Recall,Recall2,5980,fur,28.571428571429,5601,5793,0,0,,1
63e57dfe078c526e4fb9d33f,9270oji3r5,"Mediated Recall_Prolific",1,187,2023-03-04T18:26:37+00:00,3.0525839328766,3,versionB_stim.csv,ReadVersion.csv,Read,Read2,MULE,DONKEY,Study1,F,85,84,Test,User,-,,Recall,Recall2,2792,donkey,100,1796,2575,1,1,,1
63e57dfe078c526e4fb9d33f,9270oji3r5,"Mediated Recall_Prolific",1,188,2023-03-04T18:26:43+00:00,5.8480679988861,3,versionB_stim.csv,ReadVersion.csv,Read,Read2,GIVE,STEAK,Study1,U,93,94,Test,User,-,,Recall,Recall2,5574,steak,100,4974,5405,1,1,,1
63e57dfe078c526e4fb9d33f,9270oji3r5,"Mediated Recall_Prolific",1,189,2023-03-04T18:26:58+00:00,14.522912979126,3,versionB_stim.csv,ReadVersion.csv,Read,Read2,MAZE,PHONE,Study1,U,97,67,Test,User,-,,Recall,Recall2,14272,,0,-1,-1,0,0,,1
63e57dfe078c526e4fb9d33f,9270oji3r5,"Mediated Recall_Prolific",1,190,2023-03-04T18:27:04+00:00,6.1050860881805,3,versionB_stim.csv,ReadVersion.csv,Read,Read2,HORSE,WHEEL,Study1,M,69,65,Test,User,-,,Recall,Recall2,5850,wheel,100,5201,5695,1,1,,1
63e57dfe078c526e4fb9d33f,9270oji3r5,"Mediated Recall_Prolific",1,191,2023-03-04T18:27:09+00:00,5.0801808834076,3,versionB_stim.csv,ReadVersion.csv,Read,Read2,TUNA,FISH,Study1,F,90,90,Test,User,-,,Recall,Recall2,4797,fish,100,4266,4659,1,1,,1
63e57dfe078c526e4fb9d33f,9270oji3r5,"Mediated Recall_Prolific",1,192,2023-03-04T18:27:19+00:00,10.465742111206,3,versionB_stim.csv,ReadVersion.csv,Read,Read2,MEAT,KEYS,Study1,U,96,81,Test,User,-,,Recall,Recall2,10013,,0,-1,-1,0,0,,1
63e57dfe078c526e4fb9d33f,9270oji3r5,"Mediated Recall_Prolific",1,193,2023-03-04T18:27:29+00:00,9.5222368240356,3,versionB_stim.csv,ReadVersion.csv,Read,Read2,CRY,BOTTLE,Study1,M,71,95,Test,User,-,,Recall,Recall2,9259,bottle,100,8519,9193,1,1,,1
63e57dfe078c526e4fb9d33f,9270oji3r5,"Mediated Recall_Prolific",1,194,2023-03-04T18:27:39+00:00,10.162254095078,3,versionB_stim.csv,ReadVersion.csv,Read,Read2,KEYS,ROD,Study1,U,100,77,Test,User,-,,Recall,Recall2,9902,rod,100,9660,9809,1,1,,1
63e57dfe078c526e4fb9d33f,9270oji3r5,"Mediated Recall_Prolific",1,195,2023-03-04T18:27:47+00:00,7.923290014267,3,versionB_stim.csv,ReadVersion.csv,Read,Read2,TREE,SYRUP,Study1,M,66,73,Test,User,-,,Recall,Recall2,7660,syrup,100,2244,7387,1,1,,1
63e57dfe078c526e4fb9d33f,9270oji3r5,"Mediated Recall_Prolific",1,196,2023-03-04T18:27:54+00:00,7.3478310108185,3,versionB_stim.csv,ReadVersion.csv,Read,Read2,CAKE,HAND,Study1,U,104,75,Test,User,-,,Recall,Recall2,7120,,0,-1,-1,0,0,,1
63e57dfe078c526e4fb9d33f,9270oji3r5,"Mediated Recall_Prolific",1,197,2023-03-04T18:28:05+00:00,10.621371030807,3,versionB_stim.csv,ReadVersion.csv,Read,Read2,CRACKLE,ELECTION,Study1,U,94,71,Test,User,-,,Recall,Recall2,10360,,0,-1,-1,0,0,,1
63e57dfe078c526e4fb9d33f,9270oji3r5,"Mediated Recall_Prolific",1,198,2023-03-04T18:28:07+00:00,2.3037738800049,3,versionB_stim.csv,ReadVersion.csv,Read,Read2,HYGIENE,CLEAN,Study1,F,83,74,Test,User,-,,Recall,Recall2,2027,clean,100,1489,1791,1,1,,1
63e57dfe078c526e4fb9d33f,9270oji3r5,"Mediated Recall_Prolific",1,199,2023-03-04T18:28:09+00:00,2.0974071025848,3,versionB_stim.csv,ReadVersion.csv,Read,Read2,DAY,DARK,Study1,M,73,85,Test,User,-,,Recall,Recall2,1837,dark,100,1444,1686,1,1,,1
63e57dfe078c526e4fb9d33f,9270oji3r5,"Mediated Recall_Prolific",1,200,2023-03-04T18:28:13+00:00,3.9678540229797,3,versionB_stim.csv,ReadVersion.csv,Read,Read2,SIP,DRINK,Study1,F,87,93,Test,User,-,,Recall,Recall2,3667,drink,100,1292,1873,1,1,,1
63e57dfe078c526e4fb9d33f,9270oji3r5,"Mediated Recall_Prolific",1,201,2023-03-04T18:28:22+00:00,9.0103228092194,3,versionB_stim.csv,ReadVersion.csv,Read,Read2,SCALP,HEAD,Study1,F,78,70,Test,User,-,,Recall,Recall2,8746,head,100,7976,8654,1,1,,1
63e57dfe078c526e4fb9d33f,9270oji3r5,"Mediated Recall_Prolific",1,202,2023-03-04T18:28:34+00:00,12.120145082474,3,versionB_stim.csv,ReadVersion.csv,Read,Read2,WAGE,MONEY,Study1,F,77,104,Test,User,-,,Recall,Recall2,11847,money,100,11008,11549,1,1,,1
63e57dfe078c526e4fb9d33f,9270oji3r5,"Mediated Recall_Prolific",1,203,2023-03-04T18:28:42+00:00,7.761176109314,3,versionB_stim.csv,ReadVersion.csv,Read,Read2,CIRCLE,DANCE,Study1,M,68,87,Test,User,-,,Recall,Recall2,7530,dance,100,7034,7434,1,1,,1
63e57dfe078c526e4fb9d33f,9270oji3r5,"Mediated Recall_Prolific",1,204,2023-03-04T18:28:44+00:00,1.9599528312683,3,versionB_stim.csv,ReadVersion.csv,Read,Read2,MULE,DONKEY,Study1,F,79,66,Test,User,-,,Recall,Recall2,1733,donkey,100,942,1553,1,1,,1
63e57dfe078c526e4fb9d33f,9270oji3r5,"Mediated Recall_Prolific",1,205,2023-03-04T18:28:47+00:00,2.8165500164032,3,versionB_stim.csv,ReadVersion.csv,Read,Read2,FUZZY,BANG,Study1,U,105,91,Test,User,-,,Recall,Recall2,2537,bang,100,1972,2481,1,1,,1
63e57dfe078c526e4fb9d33f,9270oji3r5,"Mediated Recall_Prolific",1,206,2023-03-04T18:29:04+00:00,17.472882032394,3,versionB_stim.csv,ReadVersion.csv,Read,Read2,BIRTHDAY,PIE,Study1,M,64,69,Test,User,-,,Recall,Recall2,16926,pie,100,15927,16803,1,1,,1
63e57dfe078c526e4fb9d33f,9270oji3r5,"Mediated Recall_Prolific",1,207,2023-03-04T18:29:24+00:00,19.202250957489,3,versionB_stim.csv,ReadVersion.csv,Read,Read2,WAR,QUIET,Study1,M,63,106,Test,User,-,,Recall,Recall2,18938,,0,-1,-1,0,0,,1
63e57dfe078c526e4fb9d33f,9270oji3r5,"Mediated Recall_Prolific",1,208,2023-03-04T18:29:30+00:00,6.4686651229858,3,versionB_stim.csv,ReadVersion.csv,Read,Read2,BEACH,BOX,Study1,M,62,88,Test,User,-,,Recall,Recall2,6157,,0,-1,-1,0,0,,1
63e57dfe078c526e4fb9d33f,9270oji3r5,"Mediated Recall_Prolific",1,209,2023-03-04T18:29:37+00:00,7.2082388401031,3,versionB_stim.csv,ReadVersion.csv,Read,Read2,SIGN,TICK,Study1,U,102,82,Test,User,-,,Recall,Recall2,6924,,0,-1,-1,0,0,,1
63e57dfe078c526e4fb9d33f,9270oji3r5,"Mediated Recall_Prolific",1,210,2023-03-04T18:29:45+00:00,7.5401880741119,3,versionB_stim.csv,ReadVersion.csv,Read,Read2,STRETCH,CLOTH,Study1,U,92,105,Test,User,-,,Recall,Recall2,7250,fabric,18.181818181818,5770,6437,0,0,,1
63e57dfe078c526e4fb9d33f,9270oji3r5,"Mediated Recall_Prolific",1,211,2023-03-04T18:29:46+00:00,1.2220740318298,3,versionB_stim.csv,ReadVersion.csv,Read,Read2,,,,,,0,Instruct,User,-,"You have completed this section. Please press Enter.",,Instruct7,956,,,-1,-1,,,,1
63e57dfe078c526e4fb9d33f,9270oji3r5,"Mediated Recall_Prolific",1,212,2023-03-04T18:29:49+00:00,2.6878468990326,3,versionB_stim.csv,ReadVersion.csv,Read,Read2,,,,,,0,Instruct,User,-,"The following screen will ask you a few questions abour your experience today. You must complete these questions to receive credit.",,Instruct8,2404,,,-1,-1,,,,1
