Username,ID,ExperimentName,Session,Trial,Date,TimeDif,"Condition Number","Stimuli File","Order File","Condition Description","Condition Notes",Stimuli*Cue,Stimuli*Answer,Stimuli*Shuffle,"Stimuli*Stimuli Notes",Stimuli*Value,Procedure*Item,"Procedure*Trial Type","Procedure*Max Time","Procedure*Min Time",Procedure*Text,"Procedure*Procedure Notes",Procedure*Shuffle,Response*RT,Response*Response,Response*Accuracy,Response*RTfirst,Response*RTlast,Response*strictAcc,Response*lenientAcc,Response*focus,Response*Focus
5f79bca83a2eb65c0983816d,bnqb3wvqbe,"Mediated Recall_Prolific",1,1,2023-03-04T18:03:31+00:00,9.1861898899078,1,versionA_stim.csv,ReadVersion.csv,Read,Read1,,,,,,0,Instruct,-,5,"In this section, you will be presented with a series of word pairs. Please study each word pair! Your memory will be tested!",Initial_Instruct,Instruct1,8821,,,-1,-1,,,,1
5f79bca83a2eb65c0983816d,bnqb3wvqbe,"Mediated Recall_Prolific",1,2,2023-03-04T18:03:36+00:00,4.9342069625854,1,versionA_stim.csv,ReadVersion.csv,Read,Read1,,,,,,0,Instruct,User,-,"You will now begin. Press Enter when you are ready to begin.",,Instruct16,4662,,,-1,-1,,,,1
5f79bca83a2eb65c0983816d,bnqb3wvqbe,"Mediated Recall_Prolific",1,3,2023-03-04T18:03:41+00:00,4.6489551067352,1,versionA_stim.csv,ReadVersion.csv,Read,Read1,TREES,GREEN,BUFFER1,Buffer,1,6,Study,User,-,,Study/JOL,BUFFER,4368,,,-1,-1,,,,1
5f79bca83a2eb65c0983816d,bnqb3wvqbe,"Mediated Recall_Prolific",1,4,2023-03-04T18:03:45+00:00,3.7051289081573,1,versionA_stim.csv,ReadVersion.csv,Read,Read1,PEANUT,BUTTER,BUFFER1,Buffer,3,2,Study,User,-,,Study/JOL,BUFFER,3439,,,-1,-1,,,,1
5f79bca83a2eb65c0983816d,bnqb3wvqbe,"Mediated Recall_Prolific",1,5,2023-03-04T18:03:47+00:00,2.1891429424286,1,versionA_stim.csv,ReadVersion.csv,Read,Read1,SPACE,JAM,BUFFER1,Buffer,5,4,Study,User,-,,Study/JOL,BUFFER,1936,,,-1,-1,,,,1
5f79bca83a2eb65c0983816d,bnqb3wvqbe,"Mediated Recall_Prolific",1,6,2023-03-04T18:03:49+00:00,2.1773960590363,1,versionA_stim.csv,ReadVersion.csv,Read,Read1,SCARE,FRIGHT,BUFFER1,Buffer,4,5,Study,User,-,,Study/JOL,BUFFER,1903,,,-1,-1,,,,1
5f79bca83a2eb65c0983816d,bnqb3wvqbe,"Mediated Recall_Prolific",1,7,2023-03-04T18:03:51+00:00,1.8218879699707,1,versionA_stim.csv,ReadVersion.csv,Read,Read1,PITCHER,CATCHER,BUFFER1,Buffer,2,3,Study,User,-,,Study/JOL,BUFFER,1555,,,-1,-1,,,,1
5f79bca83a2eb65c0983816d,bnqb3wvqbe,"Mediated Recall_Prolific",1,8,2023-03-04T18:03:53+00:00,1.8041019439697,1,versionA_stim.csv,ReadVersion.csv,Read,Read1,STRETCH,CLOTH,Study1,U,37,47,Study,User,-,,Study/JOL,"Study Phase",1521,,,-1,-1,,,,1
5f79bca83a2eb65c0983816d,bnqb3wvqbe,"Mediated Recall_Prolific",1,9,2023-03-04T18:03:55+00:00,2.439836025238,1,versionA_stim.csv,ReadVersion.csv,Read,Read1,WORD,SENTENCE,Study1,F,27,17,Study,User,-,,Study/JOL,"Study Phase",2169,,,-1,-1,,,,1
5f79bca83a2eb65c0983816d,bnqb3wvqbe,"Mediated Recall_Prolific",1,10,2023-03-04T18:03:56+00:00,1.3977310657501,1,versionA_stim.csv,ReadVersion.csv,Read,Read1,MULE,DONKEY,Study1,F,24,34,Study,User,-,,Study/JOL,"Study Phase",1126,,,-1,-1,,,,1
5f79bca83a2eb65c0983816d,bnqb3wvqbe,"Mediated Recall_Prolific",1,11,2023-03-04T18:04:00+00:00,3.8992149829865,1,versionA_stim.csv,ReadVersion.csv,Read,Read1,CRY,BOTTLE,Study1,M,16,33,Study,User,-,,Study/JOL,"Study Phase",3617,,,-1,-1,,,,1
5f79bca83a2eb65c0983816d,bnqb3wvqbe,"Mediated Recall_Prolific",1,12,2023-03-04T18:04:02+00:00,2.1614711284637,1,versionA_stim.csv,ReadVersion.csv,Read,Read1,WAGE,MONEY,Study1,F,22,51,Study,User,-,,Study/JOL,"Study Phase",1885,,,-1,-1,,,,1
5f79bca83a2eb65c0983816d,bnqb3wvqbe,"Mediated Recall_Prolific",1,13,2023-03-04T18:04:05+00:00,2.914491891861,1,versionA_stim.csv,ReadVersion.csv,Read,Read1,MEAT,KEYS,Study1,U,41,11,Study,User,-,,Study/JOL,"Study Phase",2630,,,-1,-1,,,,1
5f79bca83a2eb65c0983816d,bnqb3wvqbe,"Mediated Recall_Prolific",1,14,2023-03-04T18:04:07+00:00,1.8520810604095,1,versionA_stim.csv,ReadVersion.csv,Read,Read1,VEHICLE,CHARM,Study1,U,40,35,Study,User,-,,Study/JOL,"Study Phase",1568,,,-1,-1,,,,1
5f79bca83a2eb65c0983816d,bnqb3wvqbe,"Mediated Recall_Prolific",1,15,2023-03-04T18:04:09+00:00,1.4312980175018,1,versionA_stim.csv,ReadVersion.csv,Read,Read1,SWAN,BIRD,Study1,F,26,25,Study,User,-,,Study/JOL,"Study Phase",1154,,,-1,-1,,,,1
5f79bca83a2eb65c0983816d,bnqb3wvqbe,"Mediated Recall_Prolific",1,16,2023-03-04T18:04:10+00:00,1.3422229290009,1,versionA_stim.csv,ReadVersion.csv,Read,Read1,MAZE,PHONE,Study1,U,42,37,Study,User,-,,Study/JOL,"Study Phase",1046,,,-1,-1,,,,1
5f79bca83a2eb65c0983816d,bnqb3wvqbe,"Mediated Recall_Prolific",1,17,2023-03-04T18:04:13+00:00,3.5035619735718,1,versionA_stim.csv,ReadVersion.csv,Read,Read1,LITTER,TRASH,Study1,F,21,19,Study,User,-,,Study/JOL,"Study Phase",3235,,,-1,-1,,,,1
5f79bca83a2eb65c0983816d,bnqb3wvqbe,"Mediated Recall_Prolific",1,18,2023-03-04T18:04:36+00:00,22.8498711586,1,versionA_stim.csv,ReadVersion.csv,Read,Read1,WAR,QUIET,Study1,M,8,30,Study,User,-,,Study/JOL,"Study Phase",22417,,,-1,-1,,,,1
5f79bca83a2eb65c0983816d,bnqb3wvqbe,"Mediated Recall_Prolific",1,19,2023-03-04T18:04:40+00:00,3.5739488601685,1,versionA_stim.csv,ReadVersion.csv,Read,Read1,SCALP,HEAD,Study1,F,23,45,Study,User,-,,Study/JOL,"Study Phase",3270,,,-1,-1,,,,1
5f79bca83a2eb65c0983816d,bnqb3wvqbe,"Mediated Recall_Prolific",1,20,2023-03-04T18:04:43+00:00,2.6635670661926,1,versionA_stim.csv,ReadVersion.csv,Read,Read1,SHELL,SHAKE,Study1,U,43,18,Study,User,-,,Study/JOL,"Study Phase",2377,,,-1,-1,,,,1
5f79bca83a2eb65c0983816d,bnqb3wvqbe,"Mediated Recall_Prolific",1,21,2023-03-04T18:04:46+00:00,3.0980708599091,1,versionA_stim.csv,ReadVersion.csv,Read,Read1,HARD,COTTON,Study1,M,20,43,Study,User,-,,Study/JOL,"Study Phase",2823,,,-1,-1,,,,1
5f79bca83a2eb65c0983816d,bnqb3wvqbe,"Mediated Recall_Prolific",1,22,2023-03-04T18:04:47+00:00,1.7163960933685,1,versionA_stim.csv,ReadVersion.csv,Read,Read1,TEMPERATURE,MORNING,Study1,U,48,15,Study,User,-,,Study/JOL,"Study Phase",1421,,,-1,-1,,,,1
5f79bca83a2eb65c0983816d,bnqb3wvqbe,"Mediated Recall_Prolific",1,23,2023-03-04T18:04:49+00:00,1.4271199703217,1,versionA_stim.csv,ReadVersion.csv,Read,Read1,FUZZY,BANG,Study1,U,50,49,Study,User,-,,Study/JOL,"Study Phase",1168,,,-1,-1,,,,1
5f79bca83a2eb65c0983816d,bnqb3wvqbe,"Mediated Recall_Prolific",1,24,2023-03-04T18:04:50+00:00,1.4452090263367,1,versionA_stim.csv,ReadVersion.csv,Read,Read1,TOOTH,HAIR,Study1,M,19,24,Study,User,-,,Study/JOL,"Study Phase",1183,,,-1,-1,,,,1
5f79bca83a2eb65c0983816d,bnqb3wvqbe,"Mediated Recall_Prolific",1,25,2023-03-04T18:05:03+00:00,12.60557103157,1,versionA_stim.csv,ReadVersion.csv,Read,Read1,TUNA,FISH,Study1,F,35,7,Study,User,-,,Study/JOL,"Study Phase",12194,,,-1,-1,,,,1
5f79bca83a2eb65c0983816d,bnqb3wvqbe,"Mediated Recall_Prolific",1,26,2023-03-04T18:05:04+00:00,1.565850019455,1,versionA_stim.csv,ReadVersion.csv,Read,Read1,BAT,BOUNCE,Study1,M,12,12,Study,User,-,,Study/JOL,"Study Phase",1213,,,-1,-1,,,,1
5f79bca83a2eb65c0983816d,bnqb3wvqbe,"Mediated Recall_Prolific",1,27,2023-03-04T18:05:06+00:00,1.5870180130005,1,versionA_stim.csv,ReadVersion.csv,Read,Read1,ROUGH,SILK,Study1,M,10,22,Study,User,-,,Study/JOL,"Study Phase",1326,,,-1,-1,,,,1
5f79bca83a2eb65c0983816d,bnqb3wvqbe,"Mediated Recall_Prolific",1,28,2023-03-04T18:05:08+00:00,1.8454320430756,1,versionA_stim.csv,ReadVersion.csv,Read,Read1,CEILING,CARPET,Study1,M,15,41,Study,User,-,,Study/JOL,"Study Phase",1559,,,-1,-1,,,,1
5f79bca83a2eb65c0983816d,bnqb3wvqbe,"Mediated Recall_Prolific",1,29,2023-03-04T18:05:10+00:00,1.8271448612213,1,versionA_stim.csv,ReadVersion.csv,Read,Read1,MIRROR,MAROON,Study1,U,36,44,Study,User,-,,Study/JOL,"Study Phase",1552,,,-1,-1,,,,1
5f79bca83a2eb65c0983816d,bnqb3wvqbe,"Mediated Recall_Prolific",1,30,2023-03-04T18:05:12+00:00,2.5619881153107,1,versionA_stim.csv,ReadVersion.csv,Read,Read1,AFFECTION,LOVE,Study1,F,31,42,Study,User,-,,Study/JOL,"Study Phase",2271,,,-1,-1,,,,1
5f79bca83a2eb65c0983816d,bnqb3wvqbe,"Mediated Recall_Prolific",1,31,2023-03-04T18:05:14+00:00,1.4172468185425,1,versionA_stim.csv,ReadVersion.csv,Read,Read1,CAKE,HAND,Study1,U,49,21,Study,User,-,,Study/JOL,"Study Phase",1121,,,-1,-1,,,,1
5f79bca83a2eb65c0983816d,bnqb3wvqbe,"Mediated Recall_Prolific",1,32,2023-03-04T18:05:15+00:00,1.4723670482635,1,versionA_stim.csv,ReadVersion.csv,Read,Read1,BEACH,BOX,Study1,M,7,38,Study,User,-,,Study/JOL,"Study Phase",1169,,,-1,-1,,,,1
5f79bca83a2eb65c0983816d,bnqb3wvqbe,"Mediated Recall_Prolific",1,33,2023-03-04T18:05:18+00:00,2.485053062439,1,versionA_stim.csv,ReadVersion.csv,Read,Read1,ROOT,PLANT,Study1,F,25,32,Study,User,-,,Study/JOL,"Study Phase",2203,,,-1,-1,,,,1
5f79bca83a2eb65c0983816d,bnqb3wvqbe,"Mediated Recall_Prolific",1,34,2023-03-04T18:05:19+00:00,1.7448570728302,1,versionA_stim.csv,ReadVersion.csv,Read,Read1,SIGN,TICK,Study1,U,47,20,Study,User,-,,Study/JOL,"Study Phase",1483,,,-1,-1,,,,1
5f79bca83a2eb65c0983816d,bnqb3wvqbe,"Mediated Recall_Prolific",1,35,2023-03-04T18:05:21+00:00,1.9178159236908,1,versionA_stim.csv,ReadVersion.csv,Read,Read1,LION,STRIPES,Study1,M,6,31,Study,User,-,,Study/JOL,"Study Phase",1629,,,-1,-1,,,,1
5f79bca83a2eb65c0983816d,bnqb3wvqbe,"Mediated Recall_Prolific",1,36,2023-03-04T18:05:23+00:00,1.3307681083679,1,versionA_stim.csv,ReadVersion.csv,Read,Read1,TREE,SYRUP,Study1,M,11,26,Study,User,-,,Study/JOL,"Study Phase",1018,,,-1,-1,,,,1
5f79bca83a2eb65c0983816d,bnqb3wvqbe,"Mediated Recall_Prolific",1,37,2023-03-04T18:05:24+00:00,1.8008577823639,1,versionA_stim.csv,ReadVersion.csv,Read,Read1,CREDIT,CARD,Study1,F,33,9,Study,User,-,,Study/JOL,"Study Phase",1515,,,-1,-1,,,,1
5f79bca83a2eb65c0983816d,bnqb3wvqbe,"Mediated Recall_Prolific",1,38,2023-03-04T18:05:26+00:00,1.4664371013641,1,versionA_stim.csv,ReadVersion.csv,Read,Read1,GIVE,STEAK,Study1,U,38,29,Study,User,-,,Study/JOL,"Study Phase",1201,,,-1,-1,,,,1
5f79bca83a2eb65c0983816d,bnqb3wvqbe,"Mediated Recall_Prolific",1,39,2023-03-04T18:05:27+00:00,1.5839450359344,1,versionA_stim.csv,ReadVersion.csv,Read,Read1,CIRCLE,DANCE,Study1,M,13,14,Study,User,-,,Study/JOL,"Study Phase",1300,,,-1,-1,,,,1
5f79bca83a2eb65c0983816d,bnqb3wvqbe,"Mediated Recall_Prolific",1,40,2023-03-04T18:05:29+00:00,1.6070408821106,1,versionA_stim.csv,ReadVersion.csv,Read,Read1,ORCHID,FLOWER,Study1,F,34,39,Study,User,-,,Study/JOL,"Study Phase",1328,,,-1,-1,,,,1
5f79bca83a2eb65c0983816d,bnqb3wvqbe,"Mediated Recall_Prolific",1,41,2023-03-04T18:05:31+00:00,2.2597351074219,1,versionA_stim.csv,ReadVersion.csv,Read,Read1,SOON,BELT,Study1,U,46,10,Study,User,-,,Study/JOL,"Study Phase",1978,,,-1,-1,,,,1
5f79bca83a2eb65c0983816d,bnqb3wvqbe,"Mediated Recall_Prolific",1,42,2023-03-04T18:05:33+00:00,2.1694469451904,1,versionA_stim.csv,ReadVersion.csv,Read,Read1,HORSE,WHEEL,Study1,M,14,13,Study,User,-,,Study/JOL,"Study Phase",1891,,,-1,-1,,,,1
5f79bca83a2eb65c0983816d,bnqb3wvqbe,"Mediated Recall_Prolific",1,43,2023-03-04T18:05:35+00:00,1.5798299312592,1,versionA_stim.csv,ReadVersion.csv,Read,Read1,HYGIENE,CLEAN,Study1,F,28,46,Study,User,-,,Study/JOL,"Study Phase",1277,,,-1,-1,,,,1
5f79bca83a2eb65c0983816d,bnqb3wvqbe,"Mediated Recall_Prolific",1,44,2023-03-04T18:05:37+00:00,1.4778771400452,1,versionA_stim.csv,ReadVersion.csv,Read,Read1,SIP,DRINK,Study1,F,32,23,Study,User,-,,Study/JOL,"Study Phase",1185,,,-1,-1,,,,1
5f79bca83a2eb65c0983816d,bnqb3wvqbe,"Mediated Recall_Prolific",1,45,2023-03-04T18:05:38+00:00,1.4712269306183,1,versionA_stim.csv,ReadVersion.csv,Read,Read1,LISTEN,FICTION,Study1,U,44,27,Study,User,-,,Study/JOL,"Study Phase",1204,,,-1,-1,,,,1
5f79bca83a2eb65c0983816d,bnqb3wvqbe,"Mediated Recall_Prolific",1,46,2023-03-04T18:05:40+00:00,1.5952119827271,1,versionA_stim.csv,ReadVersion.csv,Read,Read1,KEYS,ROD,Study1,U,45,50,Study,User,-,,Study/JOL,"Study Phase",1319,,,-1,-1,,,,1
5f79bca83a2eb65c0983816d,bnqb3wvqbe,"Mediated Recall_Prolific",1,47,2023-03-04T18:05:41+00:00,1.4881701469421,1,versionA_stim.csv,ReadVersion.csv,Read,Read1,CRACKLE,ELECTION,Study1,U,39,48,Study,User,-,,Study/JOL,"Study Phase",1214,,,-1,-1,,,,1
5f79bca83a2eb65c0983816d,bnqb3wvqbe,"Mediated Recall_Prolific",1,48,2023-03-04T18:05:43+00:00,1.4447128772736,1,versionA_stim.csv,ReadVersion.csv,Read,Read1,MULE,DONKEY,Study1,F,30,40,Study,User,-,,Study/JOL,"Study Phase",1169,,,-1,-1,,,,1
5f79bca83a2eb65c0983816d,bnqb3wvqbe,"Mediated Recall_Prolific",1,49,2023-03-04T18:05:44+00:00,1.5025930404663,1,versionA_stim.csv,ReadVersion.csv,Read,Read1,WEDDING,FINGER,Study1,M,17,36,Study,User,-,,Study/JOL,"Study Phase",1207,,,-1,-1,,,,1
5f79bca83a2eb65c0983816d,bnqb3wvqbe,"Mediated Recall_Prolific",1,50,2023-03-04T18:05:45+00:00,1.4263050556183,1,versionA_stim.csv,ReadVersion.csv,Read,Read1,BIRTHDAY,PIE,Study1,M,9,28,Study,User,-,,Study/JOL,"Study Phase",1134,,,-1,-1,,,,1
5f79bca83a2eb65c0983816d,bnqb3wvqbe,"Mediated Recall_Prolific",1,51,2023-03-04T18:05:47+00:00,1.3783769607544,1,versionA_stim.csv,ReadVersion.csv,Read,Read1,NAP,SLEEP,Study1,F,29,16,Study,User,-,,Study/JOL,"Study Phase",1085,,,-1,-1,,,,1
5f79bca83a2eb65c0983816d,bnqb3wvqbe,"Mediated Recall_Prolific",1,52,2023-03-04T18:05:48+00:00,1.2959969043732,1,versionA_stim.csv,ReadVersion.csv,Read,Read1,DAY,DARK,Study1,M,18,8,Study,User,-,,Study/JOL,"Study Phase",1034,,,-1,-1,,,,1
5f79bca83a2eb65c0983816d,bnqb3wvqbe,"Mediated Recall_Prolific",1,53,2023-03-04T18:05:49+00:00,1.2164690494537,1,versionA_stim.csv,ReadVersion.csv,Read,Read1,TOOL,SHED,BUFFER3,Buffer,58,60,Study,User,-,,Study/JOL,BUFFER2,929,,,-1,-1,,,,1
5f79bca83a2eb65c0983816d,bnqb3wvqbe,"Mediated Recall_Prolific",1,54,2023-03-04T18:05:51+00:00,1.4100730419159,1,versionA_stim.csv,ReadVersion.csv,Read,Read1,GEESE,GOOSE,BUFFER2,Buffer,51,56,Study,User,-,,Study/JOL,BUFFER2,1132,,,-1,-1,,,,1
5f79bca83a2eb65c0983816d,bnqb3wvqbe,"Mediated Recall_Prolific",1,55,2023-03-04T18:05:54+00:00,2.8056719303131,1,versionA_stim.csv,ReadVersion.csv,Read,Read1,ICE,FROZEN,BUFFER4,Buffer,109,110,Study,User,-,,Study/JOL,BUFFER2,2523,,,-1,-1,,,,1
5f79bca83a2eb65c0983816d,bnqb3wvqbe,"Mediated Recall_Prolific",1,56,2023-03-04T18:05:55+00:00,1.3908431529999,1,versionA_stim.csv,ReadVersion.csv,Read,Read1,THING,STUFF,BUFFER2,Buffer,55,55,Study,User,-,,Study/JOL,BUFFER2,1087,,,-1,-1,,,,1
5f79bca83a2eb65c0983816d,bnqb3wvqbe,"Mediated Recall_Prolific",1,57,2023-03-04T18:05:56+00:00,1.4796018600464,1,versionA_stim.csv,ReadVersion.csv,Read,Read1,MONTH,YEAR,BUFFER3,Buffer,57,57,Study,User,-,,Study/JOL,BUFFER2,1204,,,-1,-1,,,,1
5f79bca83a2eb65c0983816d,bnqb3wvqbe,"Mediated Recall_Prolific",1,58,2023-03-04T18:06:03+00:00,6.5678489208221,1,versionA_stim.csv,ReadVersion.csv,Read,Read1,,,,,,0,Instruct,User,-,"You have completed this section. Please press Enter.",Filler_Instruction,Instruct2,6293,,,-1,-1,,,,1
5f79bca83a2eb65c0983816d,bnqb3wvqbe,"Mediated Recall_Prolific",1,59,2023-03-04T18:08:04+00:00,120.55586600304,1,versionA_stim.csv,ReadVersion.csv,Read,Read1,,,,,,0,FreeRecall,120,120,"Please list the 50 US states in alphabetical order. The task will automatically advance to the next screen after two minutes.",,Filler1,120009,"Alabama Alaska Arizona Arkansas California Colorado Connecticut Delaware Florida Georgia Hawaii Idaho Illinois Indiana Iowa Kansas Kentucky Louisiana Maine Maryland Massachusetts Michigan Minnesota Mississippi Missouri Montana Nebraska Nevada New Hampshire New Jersey New Mexico New York North Carolina North Dakota Ohio Oklahoma Oregon Pennsylvania Rhode Island South Caro",0,-1,-1,0,0,,0.874
5f79bca83a2eb65c0983816d,bnqb3wvqbe,"Mediated Recall_Prolific",1,60,2023-03-04T18:08:25+00:00,21.694538116455,1,versionA_stim.csv,ReadVersion.csv,Read,Read1,,,,,,0,Instruct,-,10,"You will now be presented with the first word from each of the previously studied item pairs. Please type the missing word. If you do not know the word, you may guess or press Enter to skip forward to the next pair.",,Instruct3,21144,,,-1,-1,,,,1
5f79bca83a2eb65c0983816d,bnqb3wvqbe,"Mediated Recall_Prolific",1,61,2023-03-04T18:08:32+00:00,6.3860468864441,1,versionA_stim.csv,ReadVersion.csv,Read,Read1,BIRTHDAY,PIE,Study1,M,9,28,Test,User,-,,Recall,Recall1,6011,Cake,28.571428571429,-1,-1,0,0,,1
5f79bca83a2eb65c0983816d,bnqb3wvqbe,"Mediated Recall_Prolific",1,62,2023-03-04T18:08:41+00:00,9.4843101501465,1,versionA_stim.csv,ReadVersion.csv,Read,Read1,WORD,SENTENCE,Study1,F,27,17,Test,User,-,,Recall,Recall1,9154,"Puzzle ",14.285714285714,-1,-1,0,0,,1
5f79bca83a2eb65c0983816d,bnqb3wvqbe,"Mediated Recall_Prolific",1,63,2023-03-04T18:08:47+00:00,6.3568999767303,1,versionA_stim.csv,ReadVersion.csv,Read,Read1,MIRROR,MAROON,Study1,U,36,44,Test,User,-,,Recall,Recall1,5973,Look,40,-1,-1,0,0,,1
5f79bca83a2eb65c0983816d,bnqb3wvqbe,"Mediated Recall_Prolific",1,64,2023-03-04T18:08:55+00:00,7.0462419986725,1,versionA_stim.csv,ReadVersion.csv,Read,Read1,ORCHID,FLOWER,Study1,F,34,39,Test,User,-,,Recall,Recall1,6743,"Flower ",100,-1,-1,1,1,,1
5f79bca83a2eb65c0983816d,bnqb3wvqbe,"Mediated Recall_Prolific",1,65,2023-03-04T18:09:33+00:00,38.93639588356,1,versionA_stim.csv,ReadVersion.csv,Read,Read1,BEACH,BOX,Study1,M,7,38,Test,User,-,,Recall,Recall1,38444,Sand,0,-1,-1,0,0,,1
5f79bca83a2eb65c0983816d,bnqb3wvqbe,"Mediated Recall_Prolific",1,66,2023-03-04T18:09:39+00:00,5.8287470340729,1,versionA_stim.csv,ReadVersion.csv,Read,Read1,BAT,BOUNCE,Study1,M,12,12,Test,User,-,,Recall,Recall1,5463,Ball,20,-1,-1,0,0,,1
5f79bca83a2eb65c0983816d,bnqb3wvqbe,"Mediated Recall_Prolific",1,67,2023-03-04T18:09:45+00:00,5.588632106781,1,versionA_stim.csv,ReadVersion.csv,Read,Read1,TEMPERATURE,MORNING,Study1,U,48,15,Test,User,-,,Recall,Recall1,5269,,0,-1,-1,0,0,,1
5f79bca83a2eb65c0983816d,bnqb3wvqbe,"Mediated Recall_Prolific",1,68,2023-03-04T18:09:53+00:00,7.8352000713348,1,versionA_stim.csv,ReadVersion.csv,Read,Read1,CAKE,HAND,Study1,U,49,21,Test,User,-,,Recall,Recall1,7526,Eat,28.571428571429,-1,-1,0,0,,1
5f79bca83a2eb65c0983816d,bnqb3wvqbe,"Mediated Recall_Prolific",1,69,2023-03-04T18:10:04+00:00,10.867058992386,1,versionA_stim.csv,ReadVersion.csv,Read,Read1,TOOTH,HAIR,Study1,M,19,24,Test,User,-,,Recall,Recall1,10545,Hair,100,-1,-1,1,1,,1
5f79bca83a2eb65c0983816d,bnqb3wvqbe,"Mediated Recall_Prolific",1,70,2023-03-04T18:10:12+00:00,8.5824398994446,1,versionA_stim.csv,ReadVersion.csv,Read,Read1,MEAT,KEYS,Study1,U,41,11,Test,User,-,,Recall,Recall1,8213,,0,-1,-1,0,0,,1
5f79bca83a2eb65c0983816d,bnqb3wvqbe,"Mediated Recall_Prolific",1,71,2023-03-04T18:10:17+00:00,5.1863040924072,1,versionA_stim.csv,ReadVersion.csv,Read,Read1,LION,STRIPES,Study1,M,6,31,Test,User,-,,Recall,Recall1,4786,Cat,20,-1,-1,0,0,,1
5f79bca83a2eb65c0983816d,bnqb3wvqbe,"Mediated Recall_Prolific",1,72,2023-03-04T18:10:24+00:00,6.1386339664459,1,versionA_stim.csv,ReadVersion.csv,Read,Read1,SOON,BELT,Study1,U,46,10,Test,User,-,,Recall,Recall1,5799,"Enough ",20,-1,-1,0,0,,1
5f79bca83a2eb65c0983816d,bnqb3wvqbe,"Mediated Recall_Prolific",1,73,2023-03-04T18:10:29+00:00,5.4007179737091,1,versionA_stim.csv,ReadVersion.csv,Read,Read1,LITTER,TRASH,Study1,F,21,19,Test,User,-,,Recall,Recall1,5085,Box,0,-1,-1,0,0,,1
5f79bca83a2eb65c0983816d,bnqb3wvqbe,"Mediated Recall_Prolific",1,74,2023-03-04T18:10:35+00:00,5.8986110687256,1,versionA_stim.csv,ReadVersion.csv,Read,Read1,WAR,QUIET,Study1,M,8,30,Test,User,-,,Recall,Recall1,5529,,0,-1,-1,0,0,,1
5f79bca83a2eb65c0983816d,bnqb3wvqbe,"Mediated Recall_Prolific",1,75,2023-03-04T18:10:45+00:00,10.267708778381,1,versionA_stim.csv,ReadVersion.csv,Read,Read1,MAZE,PHONE,Study1,U,42,37,Test,User,-,,Recall,Recall1,9938,"Phone ",100,-1,-1,1,1,,1
5f79bca83a2eb65c0983816d,bnqb3wvqbe,"Mediated Recall_Prolific",1,76,2023-03-04T18:10:50+00:00,5.4218330383301,1,versionA_stim.csv,ReadVersion.csv,Read,Read1,TUNA,FISH,Study1,F,35,7,Test,User,-,,Recall,Recall1,5130,"Fish ",100,-1,-1,1,1,,1
5f79bca83a2eb65c0983816d,bnqb3wvqbe,"Mediated Recall_Prolific",1,77,2023-03-04T18:11:01+00:00,10.235141992569,1,versionA_stim.csv,ReadVersion.csv,Read,Read1,SCALP,HEAD,Study1,F,23,45,Test,User,-,,Recall,Recall1,9870,"Sell ",25,-1,-1,0,0,,1
5f79bca83a2eb65c0983816d,bnqb3wvqbe,"Mediated Recall_Prolific",1,78,2023-03-04T18:11:08+00:00,6.8019580841064,1,versionA_stim.csv,ReadVersion.csv,Read,Read1,CRY,BOTTLE,Study1,M,16,33,Test,User,-,,Recall,Recall1,6487,Tears,36.363636363636,-1,-1,0,0,,1
5f79bca83a2eb65c0983816d,bnqb3wvqbe,"Mediated Recall_Prolific",1,79,2023-03-04T18:11:13+00:00,5.5049750804901,1,versionA_stim.csv,ReadVersion.csv,Read,Read1,AFFECTION,LOVE,Study1,F,31,42,Test,User,-,,Recall,Recall1,5192,"Love ",100,-1,-1,1,1,,1
5f79bca83a2eb65c0983816d,bnqb3wvqbe,"Mediated Recall_Prolific",1,80,2023-03-04T18:11:19+00:00,5.7625529766083,1,versionA_stim.csv,ReadVersion.csv,Read,Read1,TREE,SYRUP,Study1,M,11,26,Test,User,-,,Recall,Recall1,5444,"Green ",20,-1,-1,0,0,,1
5f79bca83a2eb65c0983816d,bnqb3wvqbe,"Mediated Recall_Prolific",1,81,2023-03-04T18:11:25+00:00,5.8718140125275,1,versionA_stim.csv,ReadVersion.csv,Read,Read1,CRACKLE,ELECTION,Study1,U,39,48,Test,User,-,,Recall,Recall1,5539,Fire,16.666666666667,-1,-1,0,0,,1
5f79bca83a2eb65c0983816d,bnqb3wvqbe,"Mediated Recall_Prolific",1,82,2023-03-04T18:11:34+00:00,9.8029119968414,1,versionA_stim.csv,ReadVersion.csv,Read,Read1,GIVE,STEAK,Study1,U,38,29,Test,User,-,,Recall,Recall1,9415,"Take ",66.666666666667,-1,-1,0,0,,1
5f79bca83a2eb65c0983816d,bnqb3wvqbe,"Mediated Recall_Prolific",1,83,2023-03-04T18:11:46+00:00,12.004060983658,1,versionA_stim.csv,ReadVersion.csv,Read,Read1,MULE,DONKEY,Study1,F,24,34,Test,User,-,,Recall,Recall1,11649,"Horse ",36.363636363636,-1,-1,0,0,,1
5f79bca83a2eb65c0983816d,bnqb3wvqbe,"Mediated Recall_Prolific",1,84,2023-03-04T18:12:03+00:00,16.429656982422,1,versionA_stim.csv,ReadVersion.csv,Read,Read1,HARD,COTTON,Study1,M,20,43,Test,User,-,,Recall,Recall1,16124,"Tough ",36.363636363636,-1,-1,0,0,,1
5f79bca83a2eb65c0983816d,bnqb3wvqbe,"Mediated Recall_Prolific",1,85,2023-03-04T18:12:09+00:00,5.9985518455505,1,versionA_stim.csv,ReadVersion.csv,Read,Read1,DAY,DARK,Study1,M,18,8,Test,User,-,,Recall,Recall1,5706,"Week ",25,-1,-1,0,0,,1
5f79bca83a2eb65c0983816d,bnqb3wvqbe,"Mediated Recall_Prolific",1,86,2023-03-04T18:12:25+00:00,16.354057073593,1,versionA_stim.csv,ReadVersion.csv,Read,Read1,HORSE,WHEEL,Study1,M,14,13,Test,User,-,,Recall,Recall1,16042,Mule,22.222222222222,-1,-1,0,0,,1
5f79bca83a2eb65c0983816d,bnqb3wvqbe,"Mediated Recall_Prolific",1,87,2023-03-04T18:12:31+00:00,5.9260730743408,1,versionA_stim.csv,ReadVersion.csv,Read,Read1,CEILING,CARPET,Study1,M,15,41,Test,User,-,,Recall,Recall1,5599,Floor,18.181818181818,-1,-1,0,0,,1
5f79bca83a2eb65c0983816d,bnqb3wvqbe,"Mediated Recall_Prolific",1,88,2023-03-04T18:12:43+00:00,11.318186044693,1,versionA_stim.csv,ReadVersion.csv,Read,Read1,ROUGH,SILK,Study1,M,10,22,Test,User,-,,Recall,Recall1,10964,"Rigid ",22.222222222222,-1,-1,0,0,,1
5f79bca83a2eb65c0983816d,bnqb3wvqbe,"Mediated Recall_Prolific",1,89,2023-03-04T18:13:05+00:00,22.533958911896,1,versionA_stim.csv,ReadVersion.csv,Read,Read1,KEYS,ROD,Study1,U,45,50,Test,User,-,,Recall,Recall1,22019,Ring,28.571428571429,-1,-1,0,0,,1
5f79bca83a2eb65c0983816d,bnqb3wvqbe,"Mediated Recall_Prolific",1,90,2023-03-04T18:13:10+00:00,4.8695480823517,1,versionA_stim.csv,ReadVersion.csv,Read,Read1,STRETCH,CLOTH,Study1,U,37,47,Test,User,-,,Recall,Recall1,4520,Far,0,-1,-1,0,0,,1
5f79bca83a2eb65c0983816d,bnqb3wvqbe,"Mediated Recall_Prolific",1,91,2023-03-04T18:13:15+00:00,4.9362609386444,1,versionA_stim.csv,ReadVersion.csv,Read,Read1,SWAN,BIRD,Study1,F,26,25,Test,User,-,,Recall,Recall1,4591,Song,0,-1,-1,0,0,,1
5f79bca83a2eb65c0983816d,bnqb3wvqbe,"Mediated Recall_Prolific",1,92,2023-03-04T18:13:19+00:00,4.4046490192413,1,versionA_stim.csv,ReadVersion.csv,Read,Read1,VEHICLE,CHARM,Study1,U,40,35,Test,User,-,,Recall,Recall1,4073,Car,75,-1,-1,0,1,,1
5f79bca83a2eb65c0983816d,bnqb3wvqbe,"Mediated Recall_Prolific",1,93,2023-03-04T18:13:27+00:00,8.0034880638123,1,versionA_stim.csv,ReadVersion.csv,Read,Read1,CIRCLE,DANCE,Study1,M,13,14,Test,User,-,,Recall,Recall1,7544,"Round ",20,-1,-1,0,0,,1
5f79bca83a2eb65c0983816d,bnqb3wvqbe,"Mediated Recall_Prolific",1,94,2023-03-04T18:13:33+00:00,5.5797708034515,1,versionA_stim.csv,ReadVersion.csv,Read,Read1,SHELL,SHAKE,Study1,U,43,18,Test,User,-,,Recall,Recall1,5202,,0,-1,-1,0,0,,1
5f79bca83a2eb65c0983816d,bnqb3wvqbe,"Mediated Recall_Prolific",1,95,2023-03-04T18:13:42+00:00,9.1470692157745,1,versionA_stim.csv,ReadVersion.csv,Read,Read1,ROOT,PLANT,Study1,F,25,32,Test,User,-,,Recall,Recall1,8807,Plant,100,-1,-1,1,1,,1
5f79bca83a2eb65c0983816d,bnqb3wvqbe,"Mediated Recall_Prolific",1,96,2023-03-04T18:13:53+00:00,11.162776947021,1,versionA_stim.csv,ReadVersion.csv,Read,Read1,FUZZY,BANG,Study1,U,50,49,Test,User,-,,Recall,Recall1,10743,Hairy,22.222222222222,-1,-1,0,0,,1
5f79bca83a2eb65c0983816d,bnqb3wvqbe,"Mediated Recall_Prolific",1,97,2023-03-04T18:14:11+00:00,17.661995887756,1,versionA_stim.csv,ReadVersion.csv,Read,Read1,LISTEN,FICTION,Study1,U,44,27,Test,User,-,,Recall,Recall1,17190,"Sound ",33.333333333333,-1,-1,0,0,,1
5f79bca83a2eb65c0983816d,bnqb3wvqbe,"Mediated Recall_Prolific",1,98,2023-03-04T18:14:19+00:00,8.183522939682,1,versionA_stim.csv,ReadVersion.csv,Read,Read1,WAGE,MONEY,Study1,F,22,51,Test,User,-,,Recall,Recall1,7837,Pay,25,-1,-1,0,0,,1
5f79bca83a2eb65c0983816d,bnqb3wvqbe,"Mediated Recall_Prolific",1,99,2023-03-04T18:14:25+00:00,5.6200470924377,1,versionA_stim.csv,ReadVersion.csv,Read,Read1,WEDDING,FINGER,Study1,M,17,36,Test,User,-,,Recall,Recall1,5264,Ring,60,-1,-1,0,0,,1
5f79bca83a2eb65c0983816d,bnqb3wvqbe,"Mediated Recall_Prolific",1,100,2023-03-04T18:14:30+00:00,5.090548992157,1,versionA_stim.csv,ReadVersion.csv,Read,Read1,NAP,SLEEP,Study1,F,29,16,Test,User,-,,Recall,Recall1,4732,"Sleep ",100,-1,-1,1,1,,1
5f79bca83a2eb65c0983816d,bnqb3wvqbe,"Mediated Recall_Prolific",1,101,2023-03-04T18:14:35+00:00,5.1732380390167,1,versionA_stim.csv,ReadVersion.csv,Read,Read1,HYGIENE,CLEAN,Study1,F,28,46,Test,User,-,,Recall,Recall1,4792,Wash,22.222222222222,-1,-1,0,0,,1
5f79bca83a2eb65c0983816d,bnqb3wvqbe,"Mediated Recall_Prolific",1,102,2023-03-04T18:14:40+00:00,4.8726599216461,1,versionA_stim.csv,ReadVersion.csv,Read,Read1,CREDIT,CARD,Study1,F,33,9,Test,User,-,,Recall,Recall1,4542,Card,100,-1,-1,1,1,,1
5f79bca83a2eb65c0983816d,bnqb3wvqbe,"Mediated Recall_Prolific",1,103,2023-03-04T18:14:45+00:00,5.7358341217041,1,versionA_stim.csv,ReadVersion.csv,Read,Read1,SIP,DRINK,Study1,F,32,23,Test,User,-,,Recall,Recall1,5405,"Drink ",100,-1,-1,1,1,,1
5f79bca83a2eb65c0983816d,bnqb3wvqbe,"Mediated Recall_Prolific",1,104,2023-03-04T18:14:54+00:00,8.1381659507751,1,versionA_stim.csv,ReadVersion.csv,Read,Read1,MULE,DONKEY,Study1,F,30,40,Test,User,-,,Recall,Recall1,7823,"Horse ",36.363636363636,-1,-1,0,0,,1
5f79bca83a2eb65c0983816d,bnqb3wvqbe,"Mediated Recall_Prolific",1,105,2023-03-04T18:15:04+00:00,10.818299055099,1,versionA_stim.csv,ReadVersion.csv,Read,Read1,SIGN,TICK,Study1,U,47,20,Test,User,-,,Recall,Recall1,10450,Off,0,-1,-1,0,0,,1
5f79bca83a2eb65c0983816d,bnqb3wvqbe,"Mediated Recall_Prolific",1,106,2023-03-04T18:15:17+00:00,12.357751846313,1,versionA_stim.csv,ReadVersion.csv,Read,Read1,,,,,,0,Instruct,-,10,"You will now be presented with a new set of word pairs. Please study each pair. Remember that your memory will be tested! When finished, press Enter to move to the next pair.",Initial_Instruct,Instruct4,12037,,,-1,-1,,,,1
5f79bca83a2eb65c0983816d,bnqb3wvqbe,"Mediated Recall_Prolific",1,107,2023-03-04T18:15:21+00:00,4.0769221782684,1,versionA_stim.csv,ReadVersion.csv,Read,Read1,,,,,,0,Instruct,User,-,"Press Enter when you are readty to begin",,Instruct11,3802,,,-1,-1,,,,1
5f79bca83a2eb65c0983816d,bnqb3wvqbe,"Mediated Recall_Prolific",1,108,2023-03-04T18:15:23+00:00,2.2066450119019,1,versionA_stim.csv,ReadVersion.csv,Read,Read1,CAMP,ADVENTURE,BUFFER4,Buffer,110,108,Study,User,-,,Study/JOL,BUFFER2,1917,,,-1,-1,,,,1
5f79bca83a2eb65c0983816d,bnqb3wvqbe,"Mediated Recall_Prolific",1,109,2023-03-04T18:15:25+00:00,2.0238180160522,1,versionA_stim.csv,ReadVersion.csv,Read,Read1,MALT,CHOCOLATE,BUFFER2,Buffer,53,53,Study,User,-,,Study/JOL,BUFFER2,1739,,,-1,-1,,,,1
5f79bca83a2eb65c0983816d,bnqb3wvqbe,"Mediated Recall_Prolific",1,110,2023-03-04T18:15:27+00:00,1.9055387973785,1,versionA_stim.csv,ReadVersion.csv,Read,Read1,SHERRIF,POLICE,BUFFER2,Buffer,52,52,Study,User,-,,Study/JOL,BUFFER2,1611,,,-1,-1,,,,1
5f79bca83a2eb65c0983816d,bnqb3wvqbe,"Mediated Recall_Prolific",1,111,2023-03-04T18:15:29+00:00,1.8493990898132,1,versionA_stim.csv,ReadVersion.csv,Read,Read1,NOODLE,STRING,BUFFER4,Buffer,107,111,Study,User,-,,Study/JOL,BUFFER2,1555,,,-1,-1,,,,1
5f79bca83a2eb65c0983816d,bnqb3wvqbe,"Mediated Recall_Prolific",1,112,2023-03-04T18:15:30+00:00,1.643285036087,1,versionA_stim.csv,ReadVersion.csv,Read,Read1,SPRING,MARCH,BUFFER3,Buffer,59,58,Study,User,-,,Study/JOL,BUFFER2,1357,,,-1,-1,,,,1
5f79bca83a2eb65c0983816d,bnqb3wvqbe,"Mediated Recall_Prolific",1,113,2023-03-04T18:15:32+00:00,1.4655568599701,1,versionA_stim.csv,ReadVersion.csv,Read,Read1,EYES,SMELL,Study2,M,65,104,Study,User,-,,Study/JOL,"Study Phase2",1203,,,-1,-1,,,,1
5f79bca83a2eb65c0983816d,bnqb3wvqbe,"Mediated Recall_Prolific",1,114,2023-03-04T18:15:34+00:00,1.8210520744324,1,versionA_stim.csv,ReadVersion.csv,Read,Read1,HERD,COW,Study2,F,88,77,Study,User,-,,Study/JOL,"Study Phase2",1534,,,-1,-1,,,,1
5f79bca83a2eb65c0983816d,bnqb3wvqbe,"Mediated Recall_Prolific",1,115,2023-03-04T18:15:35+00:00,1.6542990207672,1,versionA_stim.csv,ReadVersion.csv,Read,Read1,FEUD,FIGHT,Study2,F,86,93,Study,User,-,,Study/JOL,"Study Phase2",1370,,,-1,-1,,,,1
5f79bca83a2eb65c0983816d,bnqb3wvqbe,"Mediated Recall_Prolific",1,116,2023-03-04T18:15:37+00:00,1.2341539859772,1,versionA_stim.csv,ReadVersion.csv,Read,Read1,ART,WOLF,Study2,U,93,106,Study,User,-,,Study/JOL,"Study Phase2",953,,,-1,-1,,,,1
5f79bca83a2eb65c0983816d,bnqb3wvqbe,"Mediated Recall_Prolific",1,117,2023-03-04T18:15:38+00:00,1.6561651229858,1,versionA_stim.csv,ReadVersion.csv,Read,Read1,SUMMER,SNOW,Study2,M,61,75,Study,User,-,,Study/JOL,"Study Phase2",1346,,,-1,-1,,,,1
5f79bca83a2eb65c0983816d,bnqb3wvqbe,"Mediated Recall_Prolific",1,118,2023-03-04T18:15:41+00:00,2.2307238578796,1,versionA_stim.csv,ReadVersion.csv,Read,Read1,LEASE,TOIL,Study2,U,101,84,Study,User,-,,Study/JOL,"Study Phase2",1944,,,-1,-1,,,,1
5f79bca83a2eb65c0983816d,bnqb3wvqbe,"Mediated Recall_Prolific",1,119,2023-03-04T18:15:42+00:00,1.4381380081177,1,versionA_stim.csv,ReadVersion.csv,Read,Read1,HAPPY,CAR,Study2,U,92,70,Study,User,-,,Study/JOL,"Study Phase2",1137,,,-1,-1,,,,1
5f79bca83a2eb65c0983816d,bnqb3wvqbe,"Mediated Recall_Prolific",1,120,2023-03-04T18:15:44+00:00,1.7142820358276,1,versionA_stim.csv,ReadVersion.csv,Read,Read1,CACTUS,PLANT,Study2,F,76,88,Study,User,-,,Study/JOL,"Study Phase2",1424,,,-1,-1,,,,1
5f79bca83a2eb65c0983816d,bnqb3wvqbe,"Mediated Recall_Prolific",1,121,2023-03-04T18:15:45+00:00,1.1904799938202,1,versionA_stim.csv,ReadVersion.csv,Read,Read1,CASH,LEG,Study2,U,105,78,Study,User,-,,Study/JOL,"Study Phase2",901,,,-1,-1,,,,1
5f79bca83a2eb65c0983816d,bnqb3wvqbe,"Mediated Recall_Prolific",1,122,2023-03-04T18:15:46+00:00,1.3429369926453,1,versionA_stim.csv,ReadVersion.csv,Read,Read1,HORNET,STING,Study2,F,85,95,Study,User,-,,Study/JOL,"Study Phase2",1056,,,-1,-1,,,,1
5f79bca83a2eb65c0983816d,bnqb3wvqbe,"Mediated Recall_Prolific",1,123,2023-03-04T18:15:47+00:00,1.2293910980225,1,versionA_stim.csv,ReadVersion.csv,Read,Read1,SOAP,DRINK,Study2,M,67,72,Study,User,-,,Study/JOL,"Study Phase2",942,,,-1,-1,,,,1
5f79bca83a2eb65c0983816d,bnqb3wvqbe,"Mediated Recall_Prolific",1,124,2023-03-04T18:15:49+00:00,1.3217899799347,1,versionA_stim.csv,ReadVersion.csv,Read,Read1,PUSH,CLUTTER,Study2,U,96,91,Study,User,-,,Study/JOL,"Study Phase2",1045,,,-1,-1,,,,1
5f79bca83a2eb65c0983816d,bnqb3wvqbe,"Mediated Recall_Prolific",1,125,2023-03-04T18:15:50+00:00,1.4167850017548,1,versionA_stim.csv,ReadVersion.csv,Read,Read1,REALITY,ISLAND,Study2,M,64,89,Study,User,-,,Study/JOL,"Study Phase2",1139,,,-1,-1,,,,1
5f79bca83a2eb65c0983816d,bnqb3wvqbe,"Mediated Recall_Prolific",1,126,2023-03-04T18:15:51+00:00,1.2780900001526,1,versionA_stim.csv,ReadVersion.csv,Read,Read1,DIETARY,SACK,Study2,U,97,76,Study,User,-,,Study/JOL,"Study Phase2",993,,,-1,-1,,,,1
5f79bca83a2eb65c0983816d,bnqb3wvqbe,"Mediated Recall_Prolific",1,127,2023-03-04T18:15:53+00:00,1.1320929527283,1,versionA_stim.csv,ReadVersion.csv,Read,Read1,ATTIRE,CLOTHES,Study2,F,79,73,Study,User,-,,Study/JOL,"Study Phase2",838,,,-1,-1,,,,1
5f79bca83a2eb65c0983816d,bnqb3wvqbe,"Mediated Recall_Prolific",1,128,2023-03-04T18:15:54+00:00,1.1725108623505,1,versionA_stim.csv,ReadVersion.csv,Read,Read1,TRAP,CAVE,Study2,M,70,103,Study,User,-,,Study/JOL,"Study Phase2",903,,,-1,-1,,,,1
5f79bca83a2eb65c0983816d,bnqb3wvqbe,"Mediated Recall_Prolific",1,129,2023-03-04T18:15:55+00:00,1.5264551639557,1,versionA_stim.csv,ReadVersion.csv,Read,Read1,CHILL,COLD,Study2,F,87,83,Study,User,-,,Study/JOL,"Study Phase2",1239,,,-1,-1,,,,1
5f79bca83a2eb65c0983816d,bnqb3wvqbe,"Mediated Recall_Prolific",1,130,2023-03-04T18:15:57+00:00,1.5106768608093,1,versionA_stim.csv,ReadVersion.csv,Read,Read1,DEATH,BUSINESS,Study2,U,99,99,Study,User,-,,Study/JOL,"Study Phase2",1208,,,-1,-1,,,,1
5f79bca83a2eb65c0983816d,bnqb3wvqbe,"Mediated Recall_Prolific",1,131,2023-03-04T18:15:58+00:00,1.575296163559,1,versionA_stim.csv,ReadVersion.csv,Read,Read1,HEAVY,FEATHER,Study2,M,68,67,Study,User,-,,Study/JOL,"Study Phase2",1290,,,-1,-1,,,,1
5f79bca83a2eb65c0983816d,bnqb3wvqbe,"Mediated Recall_Prolific",1,132,2023-03-04T18:16:00+00:00,1.5457940101624,1,versionA_stim.csv,ReadVersion.csv,Read,Read1,OVEN,BASKET,Study2,M,71,86,Study,User,-,,Study/JOL,"Study Phase2",1225,,,-1,-1,,,,1
5f79bca83a2eb65c0983816d,bnqb3wvqbe,"Mediated Recall_Prolific",1,133,2023-03-04T18:16:02+00:00,1.5476679801941,1,versionA_stim.csv,ReadVersion.csv,Read,Read1,DOCUMENT,PAPER,Study2,F,82,82,Study,User,-,,Study/JOL,"Study Phase2",1245,,,-1,-1,,,,1
5f79bca83a2eb65c0983816d,bnqb3wvqbe,"Mediated Recall_Prolific",1,134,2023-03-04T18:16:03+00:00,1.9038338661194,1,versionA_stim.csv,ReadVersion.csv,Read,Read1,WINDOW,KNOB,Study2,M,74,81,Study,User,-,,Study/JOL,"Study Phase2",1620,,,-1,-1,,,,1
5f79bca83a2eb65c0983816d,bnqb3wvqbe,"Mediated Recall_Prolific",1,135,2023-03-04T18:16:05+00:00,1.8611881732941,1,versionA_stim.csv,ReadVersion.csv,Read,Read1,SUGAR,RIDDLE,Study2,U,95,94,Study,User,-,,Study/JOL,"Study Phase2",1571,,,-1,-1,,,,1
5f79bca83a2eb65c0983816d,bnqb3wvqbe,"Mediated Recall_Prolific",1,136,2023-03-04T18:16:07+00:00,1.7211878299713,1,versionA_stim.csv,ReadVersion.csv,Read,Read1,KING,VASE,Study2,U,91,87,Study,User,-,,Study/JOL,"Study Phase2",1440,,,-1,-1,,,,1
5f79bca83a2eb65c0983816d,bnqb3wvqbe,"Mediated Recall_Prolific",1,137,2023-03-04T18:16:08+00:00,1.3006479740143,1,versionA_stim.csv,ReadVersion.csv,Read,Read1,BOTH,OUNCE,Study2,U,102,79,Study,User,-,,Study/JOL,"Study Phase2",1004,,,-1,-1,,,,1
5f79bca83a2eb65c0983816d,bnqb3wvqbe,"Mediated Recall_Prolific",1,138,2023-03-04T18:16:09+00:00,1.0740292072296,1,versionA_stim.csv,ReadVersion.csv,Read,Read1,GRILL,THIGH,Study2,M,72,62,Study,User,-,,Study/JOL,"Study Phase2",789,,,-1,-1,,,,1
5f79bca83a2eb65c0983816d,bnqb3wvqbe,"Mediated Recall_Prolific",1,139,2023-03-04T18:16:10+00:00,1.0372378826141,1,versionA_stim.csv,ReadVersion.csv,Read,Read1,SCHOOL,STOP,Study2,M,62,69,Study,User,-,,Study/JOL,"Study Phase2",771,,,-1,-1,,,,1
5f79bca83a2eb65c0983816d,bnqb3wvqbe,"Mediated Recall_Prolific",1,140,2023-03-04T18:16:11+00:00,0.91746091842651,1,versionA_stim.csv,ReadVersion.csv,Read,Read1,CHOP,CUT,Study2,F,77,102,Study,User,-,,Study/JOL,"Study Phase2",662,,,-1,-1,,,,1
5f79bca83a2eb65c0983816d,bnqb3wvqbe,"Mediated Recall_Prolific",1,141,2023-03-04T18:16:12+00:00,0.97181010246277,1,versionA_stim.csv,ReadVersion.csv,Read,Read1,INCENSE,SMELL,Study2,F,83,65,Study,User,-,,Study/JOL,"Study Phase2",689,,,-1,-1,,,,1
5f79bca83a2eb65c0983816d,bnqb3wvqbe,"Mediated Recall_Prolific",1,142,2023-03-04T18:16:14+00:00,1.6892430782318,1,versionA_stim.csv,ReadVersion.csv,Read,Read1,STRONG,ACCIDENT,Study2,U,94,64,Study,User,-,,Study/JOL,"Study Phase2",1400,,,-1,-1,,,,1
5f79bca83a2eb65c0983816d,bnqb3wvqbe,"Mediated Recall_Prolific",1,143,2023-03-04T18:16:17+00:00,2.5519158840179,1,versionA_stim.csv,ReadVersion.csv,Read,Read1,MIRROR,CHILDREN,Study2,U,104,66,Study,User,-,,Study/JOL,"Study Phase2",2248,,,-1,-1,,,,1
5f79bca83a2eb65c0983816d,bnqb3wvqbe,"Mediated Recall_Prolific",1,144,2023-03-04T18:16:18+00:00,1.3642299175262,1,versionA_stim.csv,ReadVersion.csv,Read,Read1,BENCH,HORN,Study2,U,98,97,Study,User,-,,Study/JOL,"Study Phase2",1073,,,-1,-1,,,,1
5f79bca83a2eb65c0983816d,bnqb3wvqbe,"Mediated Recall_Prolific",1,145,2023-03-04T18:16:20+00:00,1.6219961643219,1,versionA_stim.csv,ReadVersion.csv,Read,Read1,LEAGUE,BASEBALL,Study2,F,84,100,Study,User,-,,Study/JOL,"Study Phase2",1340,,,-1,-1,,,,1
5f79bca83a2eb65c0983816d,bnqb3wvqbe,"Mediated Recall_Prolific",1,146,2023-03-04T18:16:21+00:00,1.5262539386749,1,versionA_stim.csv,ReadVersion.csv,Read,Read1,PANTS,COLLAR,Study2,M,63,74,Study,User,-,,Study/JOL,"Study Phase2",1206,,,-1,-1,,,,1
5f79bca83a2eb65c0983816d,bnqb3wvqbe,"Mediated Recall_Prolific",1,147,2023-03-04T18:16:23+00:00,1.7304420471191,1,versionA_stim.csv,ReadVersion.csv,Read,Read1,BRIDGE,WATER,Study2,F,90,101,Study,User,-,,Study/JOL,"Study Phase2",1436,,,-1,-1,,,,1
5f79bca83a2eb65c0983816d,bnqb3wvqbe,"Mediated Recall_Prolific",1,148,2023-03-04T18:16:24+00:00,1.6356019973755,1,versionA_stim.csv,ReadVersion.csv,Read,Read1,RAKE,SEED,Study2,M,69,71,Study,User,-,,Study/JOL,"Study Phase2",1345,,,-1,-1,,,,1
5f79bca83a2eb65c0983816d,bnqb3wvqbe,"Mediated Recall_Prolific",1,149,2023-03-04T18:16:26+00:00,1.6266849040985,1,versionA_stim.csv,ReadVersion.csv,Read,Read1,NURSE,LAWYER,Study2,M,66,90,Study,User,-,,Study/JOL,"Study Phase2",1323,,,-1,-1,,,,1
5f79bca83a2eb65c0983816d,bnqb3wvqbe,"Mediated Recall_Prolific",1,150,2023-03-04T18:16:27+00:00,1.2689411640167,1,versionA_stim.csv,ReadVersion.csv,Read,Read1,WASP,BUG,Study2,F,89,105,Study,User,-,,Study/JOL,"Study Phase2",981,,,-1,-1,,,,1
5f79bca83a2eb65c0983816d,bnqb3wvqbe,"Mediated Recall_Prolific",1,151,2023-03-04T18:16:29+00:00,1.242458820343,1,versionA_stim.csv,ReadVersion.csv,Read,Read1,SICK,HIDE,Study2,U,100,85,Study,User,-,,Study/JOL,"Study Phase2",937,,,-1,-1,,,,1
5f79bca83a2eb65c0983816d,bnqb3wvqbe,"Mediated Recall_Prolific",1,152,2023-03-04T18:16:31+00:00,2.4503691196442,1,versionA_stim.csv,ReadVersion.csv,Read,Read1,VALLEY,PEAK,Study2,M,73,68,Study,User,-,,Study/JOL,"Study Phase2",2155,,,-1,-1,,,,1
5f79bca83a2eb65c0983816d,bnqb3wvqbe,"Mediated Recall_Prolific",1,153,2023-03-04T18:16:32+00:00,1.4823749065399,1,versionA_stim.csv,ReadVersion.csv,Read,Read1,RAZOR,MUSCLE,Study2,M,75,96,Study,User,-,,Study/JOL,"Study Phase2",1216,,,-1,-1,,,,1
5f79bca83a2eb65c0983816d,bnqb3wvqbe,"Mediated Recall_Prolific",1,154,2023-03-04T18:16:34+00:00,1.6679971218109,1,versionA_stim.csv,ReadVersion.csv,Read,Read1,ARTERY,BRONZE,Study2,U,103,80,Study,User,-,,Study/JOL,"Study Phase2",1364,,,-1,-1,,,,1
5f79bca83a2eb65c0983816d,bnqb3wvqbe,"Mediated Recall_Prolific",1,155,2023-03-04T18:16:36+00:00,2.0662178993225,1,versionA_stim.csv,ReadVersion.csv,Read,Read1,CHISEL,HAMMER,Study2,F,78,98,Study,User,-,,Study/JOL,"Study Phase2",1767,,,-1,-1,,,,1
5f79bca83a2eb65c0983816d,bnqb3wvqbe,"Mediated Recall_Prolific",1,156,2023-03-04T18:16:38+00:00,1.8201141357422,1,versionA_stim.csv,ReadVersion.csv,Read,Read1,BLAZE,FIRE,Study2,F,81,92,Study,User,-,,Study/JOL,"Study Phase2",1537,,,-1,-1,,,,1
5f79bca83a2eb65c0983816d,bnqb3wvqbe,"Mediated Recall_Prolific",1,157,2023-03-04T18:16:40+00:00,1.7626118659973,1,versionA_stim.csv,ReadVersion.csv,Read,Read1,CHERRY,RED,Study2,F,80,63,Study,User,-,,Study/JOL,"Study Phase2",1447,,,-1,-1,,,,1
5f79bca83a2eb65c0983816d,bnqb3wvqbe,"Mediated Recall_Prolific",1,158,2023-03-04T18:16:41+00:00,1.1352751255035,1,versionA_stim.csv,ReadVersion.csv,Read,Read1,DAYS,WEAKS,BUFFER3,Buffer,56,59,Study,User,-,,Study/JOL,BUFFER2,869,,,-1,-1,,,,1
5f79bca83a2eb65c0983816d,bnqb3wvqbe,"Mediated Recall_Prolific",1,159,2023-03-04T18:16:42+00:00,1.0327489376068,1,versionA_stim.csv,ReadVersion.csv,Read,Read1,CARROT,POTATO,BUFFER4,Buffer,106,109,Study,User,-,,Study/JOL,BUFFER2,762,,,-1,-1,,,,1
5f79bca83a2eb65c0983816d,bnqb3wvqbe,"Mediated Recall_Prolific",1,160,2023-03-04T18:16:43+00:00,1.0734820365906,1,versionA_stim.csv,ReadVersion.csv,Read,Read1,OCTOBER,SPOOKY,BUFFER3,Buffer,60,61,Study,User,-,,Study/JOL,BUFFER2,797,,,-1,-1,,,,1
5f79bca83a2eb65c0983816d,bnqb3wvqbe,"Mediated Recall_Prolific",1,161,2023-03-04T18:16:44+00:00,1.1025359630585,1,versionA_stim.csv,ReadVersion.csv,Read,Read1,SHRIMP,FISH,BUFFER4,Buffer,108,107,Study,User,-,,Study/JOL,BUFFER2,839,,,-1,-1,,,,1
5f79bca83a2eb65c0983816d,bnqb3wvqbe,"Mediated Recall_Prolific",1,162,2023-03-04T18:16:45+00:00,1.0686268806458,1,versionA_stim.csv,ReadVersion.csv,Read,Read1,MOON,SPACE,BUFFER2,Buffer,54,54,Study,User,-,,Study/JOL,BUFFER2,809,,,-1,-1,,,,1
5f79bca83a2eb65c0983816d,bnqb3wvqbe,"Mediated Recall_Prolific",1,163,2023-03-04T18:16:48+00:00,2.8114900588989,1,versionA_stim.csv,ReadVersion.csv,Read,Read1,,,,,,0,Instruct,User,-,"You have completed this section. Please press Enter.",Filler_Instruction,Instruct2,2533,,,-1,-1,,,,1
5f79bca83a2eb65c0983816d,bnqb3wvqbe,"Mediated Recall_Prolific",1,164,2023-03-04T18:18:49+00:00,120.58764791489,1,versionA_stim.csv,ReadVersion.csv,Read,Read1,,,,,,0,FreeRecall,120,120,"Please list the 50 US states in alphabetical order. The task will automatically advance to the next screen after two minutes.",,Filler1,120058,"Alabama Alaska Arizona Arkansas California Colorado Connecticut Delaware Florida Georgia Hawaii Idaho Illinois Indiana Iowa Kansas Kentucky Louisiana Maine Maryland Massachusetts Michigan Minnesota Mississippi Missouri Montana Nebraska Nevada New Hampshire New Jersey New Mexico New York North Carolina North Dakota Ohio Oklahoma Oregon Pennsylv",0,-1,-1,0,0,,1
5f79bca83a2eb65c0983816d,bnqb3wvqbe,"Mediated Recall_Prolific",1,165,2023-03-04T18:18:59+00:00,10.605629205704,1,versionA_stim.csv,ReadVersion.csv,Read,Read1,,,,,,0,Instruct,-,10,"You will now be presented with the first word from each of the previously studied item pairs. Please type the missing word. If you do not know the word, you may guess or press Enter to skip forward to the next pair.",,Instruct3,10271,,,-1,-1,,,,1
5f79bca83a2eb65c0983816d,bnqb3wvqbe,"Mediated Recall_Prolific",1,166,2023-03-04T18:19:05+00:00,6.2366409301758,1,versionA_stim.csv,ReadVersion.csv,Read,Read1,ART,WOLF,Study2,U,93,106,Test,User,-,,Recall,Recall2,5905,Look,25,-1,-1,0,0,,1
5f79bca83a2eb65c0983816d,bnqb3wvqbe,"Mediated Recall_Prolific",1,167,2023-03-04T18:19:12+00:00,6.2665419578552,1,versionA_stim.csv,ReadVersion.csv,Read,Read1,HEAVY,FEATHER,Study2,M,68,67,Test,User,-,,Recall,Recall2,5917,"Feather ",100,-1,-1,1,1,,1
5f79bca83a2eb65c0983816d,bnqb3wvqbe,"Mediated Recall_Prolific",1,168,2023-03-04T18:19:22+00:00,9.8149149417877,1,versionA_stim.csv,ReadVersion.csv,Read,Read1,VALLEY,PEAK,Study2,M,73,68,Test,User,-,,Recall,Recall2,9484,,0,-1,-1,0,0,,1
5f79bca83a2eb65c0983816d,bnqb3wvqbe,"Mediated Recall_Prolific",1,169,2023-03-04T18:19:28+00:00,6.8155269622803,1,versionA_stim.csv,ReadVersion.csv,Read,Read1,SCHOOL,STOP,Study2,M,62,69,Test,User,-,,Recall,Recall2,6473,"Learn ",0,-1,-1,0,0,,1
5f79bca83a2eb65c0983816d,bnqb3wvqbe,"Mediated Recall_Prolific",1,170,2023-03-04T18:19:37+00:00,9.113156080246,1,versionA_stim.csv,ReadVersion.csv,Read,Read1,NURSE,LAWYER,Study2,M,66,90,Test,User,-,,Recall,Recall2,8765,"Doctor ",16.666666666667,-1,-1,0,0,,1
5f79bca83a2eb65c0983816d,bnqb3wvqbe,"Mediated Recall_Prolific",1,171,2023-03-04T18:19:44+00:00,6.7261729240417,1,versionA_stim.csv,ReadVersion.csv,Read,Read1,FEUD,FIGHT,Study2,F,86,93,Test,User,-,,Recall,Recall2,6380,"Fight ",100,-1,-1,1,1,,1
5f79bca83a2eb65c0983816d,bnqb3wvqbe,"Mediated Recall_Prolific",1,172,2023-03-04T18:19:55+00:00,10.814203023911,1,versionA_stim.csv,ReadVersion.csv,Read,Read1,RAZOR,MUSCLE,Study2,M,75,96,Test,User,-,,Recall,Recall2,10474,"Shave ",36.363636363636,-1,-1,0,0,,1
5f79bca83a2eb65c0983816d,bnqb3wvqbe,"Mediated Recall_Prolific",1,173,2023-03-04T18:20:11+00:00,16.167941093445,1,versionA_stim.csv,ReadVersion.csv,Read,Read1,SUMMER,SNOW,Study2,M,61,75,Test,User,-,,Recall,Recall2,15893,"Spring ",40,-1,-1,0,0,,1
5f79bca83a2eb65c0983816d,bnqb3wvqbe,"Mediated Recall_Prolific",1,174,2023-03-04T18:20:27+00:00,15.543294906616,1,versionA_stim.csv,ReadVersion.csv,Read,Read1,LEASE,TOIL,Study2,U,101,84,Test,User,-,,Recall,Recall2,15235,Buy,0,-1,-1,0,0,,1
5f79bca83a2eb65c0983816d,bnqb3wvqbe,"Mediated Recall_Prolific",1,175,2023-03-04T18:20:33+00:00,5.8425750732422,1,versionA_stim.csv,ReadVersion.csv,Read,Read1,KING,VASE,Study2,U,91,87,Test,User,-,,Recall,Recall2,5505,Queen,22.222222222222,-1,-1,0,0,,1
5f79bca83a2eb65c0983816d,bnqb3wvqbe,"Mediated Recall_Prolific",1,176,2023-03-04T18:20:49+00:00,16.685702085495,1,versionA_stim.csv,ReadVersion.csv,Read,Read1,DEATH,BUSINESS,Study2,U,99,99,Test,User,-,,Recall,Recall2,16406,,0,-1,-1,0,0,,1
5f79bca83a2eb65c0983816d,bnqb3wvqbe,"Mediated Recall_Prolific",1,177,2023-03-04T18:20:58+00:00,8.9926648139954,1,versionA_stim.csv,ReadVersion.csv,Read,Read1,CHISEL,HAMMER,Study2,F,78,98,Test,User,-,,Recall,Recall2,8684,"Hammer ",100,-1,-1,1,1,,1
5f79bca83a2eb65c0983816d,bnqb3wvqbe,"Mediated Recall_Prolific",1,178,2023-03-04T18:21:04+00:00,5.3473780155182,1,versionA_stim.csv,ReadVersion.csv,Read,Read1,LEAGUE,BASEBALL,Study2,F,84,100,Test,User,-,,Recall,Recall2,5006,Team,33.333333333333,-1,-1,0,0,,1
5f79bca83a2eb65c0983816d,bnqb3wvqbe,"Mediated Recall_Prolific",1,179,2023-03-04T18:21:10+00:00,6.1356391906738,1,versionA_stim.csv,ReadVersion.csv,Read,Read1,PUSH,CLUTTER,Study2,U,96,91,Test,User,-,,Recall,Recall2,5829,Pull,18.181818181818,-1,-1,0,0,,1
5f79bca83a2eb65c0983816d,bnqb3wvqbe,"Mediated Recall_Prolific",1,180,2023-03-04T18:21:14+00:00,4.7531559467316,1,versionA_stim.csv,ReadVersion.csv,Read,Read1,ATTIRE,CLOTHES,Study2,F,79,73,Test,User,-,,Recall,Recall2,4428,Dress,33.333333333333,-1,-1,0,0,,1
5f79bca83a2eb65c0983816d,bnqb3wvqbe,"Mediated Recall_Prolific",1,181,2023-03-04T18:21:22+00:00,7.4323840141296,1,versionA_stim.csv,ReadVersion.csv,Read,Read1,WASP,BUG,Study2,F,89,105,Test,User,-,,Recall,Recall2,7126,Sting,25,-1,-1,0,0,,1
5f79bca83a2eb65c0983816d,bnqb3wvqbe,"Mediated Recall_Prolific",1,182,2023-03-04T18:21:31+00:00,9.0831248760223,1,versionA_stim.csv,ReadVersion.csv,Read,Read1,HAPPY,CAR,Study2,U,92,70,Test,User,-,,Recall,Recall2,8726,Glad,28.571428571429,-1,-1,0,0,,1
5f79bca83a2eb65c0983816d,bnqb3wvqbe,"Mediated Recall_Prolific",1,183,2023-03-04T18:21:41+00:00,9.5943660736084,1,versionA_stim.csv,ReadVersion.csv,Read,Read1,CHILL,COLD,Study2,F,87,83,Test,User,-,,Recall,Recall2,9190,Cold,100,-1,-1,1,1,,1
5f79bca83a2eb65c0983816d,bnqb3wvqbe,"Mediated Recall_Prolific",1,184,2023-03-04T18:21:48+00:00,7.8612580299377,1,versionA_stim.csv,ReadVersion.csv,Read,Read1,WINDOW,KNOB,Study2,M,74,81,Test,User,-,,Recall,Recall2,7558,Knob,100,-1,-1,1,1,,1
5f79bca83a2eb65c0983816d,bnqb3wvqbe,"Mediated Recall_Prolific",1,185,2023-03-04T18:21:58+00:00,9.2348299026489,1,versionA_stim.csv,ReadVersion.csv,Read,Read1,BRIDGE,WATER,Study2,F,90,101,Test,User,-,,Recall,Recall2,8895,"Drive ",20,-1,-1,0,0,,1
5f79bca83a2eb65c0983816d,bnqb3wvqbe,"Mediated Recall_Prolific",1,186,2023-03-04T18:22:07+00:00,9.1978271007538,1,versionA_stim.csv,ReadVersion.csv,Read,Read1,HERD,COW,Study2,F,88,77,Test,User,-,,Recall,Recall2,8848,"Cow ",100,-1,-1,1,1,,1
5f79bca83a2eb65c0983816d,bnqb3wvqbe,"Mediated Recall_Prolific",1,187,2023-03-04T18:22:13+00:00,6.4434640407562,1,versionA_stim.csv,ReadVersion.csv,Read,Read1,SUGAR,RIDDLE,Study2,U,95,94,Test,User,-,,Recall,Recall2,6092,Sweet,18.181818181818,-1,-1,0,0,,1
5f79bca83a2eb65c0983816d,bnqb3wvqbe,"Mediated Recall_Prolific",1,188,2023-03-04T18:22:20+00:00,6.8057639598846,1,versionA_stim.csv,ReadVersion.csv,Read,Read1,DOCUMENT,PAPER,Study2,F,82,82,Test,User,-,,Recall,Recall2,6476,"Paper ",100,-1,-1,1,1,,1
5f79bca83a2eb65c0983816d,bnqb3wvqbe,"Mediated Recall_Prolific",1,189,2023-03-04T18:22:27+00:00,7.1867859363556,1,versionA_stim.csv,ReadVersion.csv,Read,Read1,TRAP,CAVE,Study2,M,70,103,Test,User,-,,Recall,Recall2,6904,"Catch ",44.444444444444,-1,-1,0,0,,1
5f79bca83a2eb65c0983816d,bnqb3wvqbe,"Mediated Recall_Prolific",1,190,2023-03-04T18:22:35+00:00,7.9240779876709,1,versionA_stim.csv,ReadVersion.csv,Read,Read1,ARTERY,BRONZE,Study2,U,103,80,Test,User,-,,Recall,Recall2,7626,Blood,36.363636363636,-1,-1,0,0,,1
5f79bca83a2eb65c0983816d,bnqb3wvqbe,"Mediated Recall_Prolific",1,191,2023-03-04T18:22:41+00:00,5.7986590862274,1,versionA_stim.csv,ReadVersion.csv,Read,Read1,SICK,HIDE,Study2,U,100,85,Test,User,-,,Recall,Recall2,5433,Day,28.571428571429,-1,-1,0,0,,1
5f79bca83a2eb65c0983816d,bnqb3wvqbe,"Mediated Recall_Prolific",1,192,2023-03-04T18:22:50+00:00,9.220291852951,1,versionA_stim.csv,ReadVersion.csv,Read,Read1,CASH,LEG,Study2,U,105,78,Test,User,-,,Recall,Recall2,8918,Money,25,-1,-1,0,0,,1
5f79bca83a2eb65c0983816d,bnqb3wvqbe,"Mediated Recall_Prolific",1,193,2023-03-04T18:22:56+00:00,5.9539802074432,1,versionA_stim.csv,ReadVersion.csv,Read,Read1,OVEN,BASKET,Study2,M,71,86,Test,User,-,,Recall,Recall2,5612,Bake,80,-1,-1,0,1,,1
5f79bca83a2eb65c0983816d,bnqb3wvqbe,"Mediated Recall_Prolific",1,194,2023-03-04T18:23:01+00:00,4.3918988704681,1,versionA_stim.csv,ReadVersion.csv,Read,Read1,SOAP,DRINK,Study2,M,67,72,Test,User,-,,Recall,Recall2,4032,Wash,0,-1,-1,0,0,,1
5f79bca83a2eb65c0983816d,bnqb3wvqbe,"Mediated Recall_Prolific",1,195,2023-03-04T18:23:07+00:00,6.3093509674072,1,versionA_stim.csv,ReadVersion.csv,Read,Read1,RAKE,SEED,Study2,M,69,71,Test,User,-,,Recall,Recall2,5969,"Leaves ",40,-1,-1,0,0,,1
5f79bca83a2eb65c0983816d,bnqb3wvqbe,"Mediated Recall_Prolific",1,196,2023-03-04T18:23:11+00:00,4.5901579856873,1,versionA_stim.csv,ReadVersion.csv,Read,Read1,HORNET,STING,Study2,F,85,95,Test,User,-,,Recall,Recall2,4227,Nest,44.444444444444,-1,-1,0,0,,1
5f79bca83a2eb65c0983816d,bnqb3wvqbe,"Mediated Recall_Prolific",1,197,2023-03-04T18:23:17+00:00,5.645898103714,1,versionA_stim.csv,ReadVersion.csv,Read,Read1,CHOP,CUT,Study2,F,77,102,Test,User,-,,Recall,Recall2,5333,"Cut ",100,-1,-1,1,1,,1
5f79bca83a2eb65c0983816d,bnqb3wvqbe,"Mediated Recall_Prolific",1,198,2023-03-04T18:23:24+00:00,7.2267029285431,1,versionA_stim.csv,ReadVersion.csv,Read,Read1,BOTH,OUNCE,Study2,U,102,79,Test,User,-,,Recall,Recall2,6882,"Either ",18.181818181818,-1,-1,0,0,,1
5f79bca83a2eb65c0983816d,bnqb3wvqbe,"Mediated Recall_Prolific",1,199,2023-03-04T18:23:39+00:00,14.13973903656,1,versionA_stim.csv,ReadVersion.csv,Read,Read1,REALITY,ISLAND,Study2,M,64,89,Test,User,-,,Recall,Recall2,13768,,0,-1,-1,0,0,,1
5f79bca83a2eb65c0983816d,bnqb3wvqbe,"Mediated Recall_Prolific",1,200,2023-03-04T18:23:43+00:00,4.7760190963745,1,versionA_stim.csv,ReadVersion.csv,Read,Read1,GRILL,THIGH,Study2,M,72,62,Test,User,-,,Recall,Recall2,4451,Cook,0,-1,-1,0,0,,1
5f79bca83a2eb65c0983816d,bnqb3wvqbe,"Mediated Recall_Prolific",1,201,2023-03-04T18:23:51+00:00,7.7625019550323,1,versionA_stim.csv,ReadVersion.csv,Read,Read1,BENCH,HORN,Study2,U,98,97,Test,User,-,,Recall,Recall2,7448,Wait,0,-1,-1,0,0,,1
5f79bca83a2eb65c0983816d,bnqb3wvqbe,"Mediated Recall_Prolific",1,202,2023-03-04T18:23:57+00:00,6.4178378582001,1,versionA_stim.csv,ReadVersion.csv,Read,Read1,MIRROR,CHILDREN,Study2,U,104,66,Test,User,-,,Recall,Recall2,5663,"Reflection ",33.333333333333,-1,-1,0,0,,1
5f79bca83a2eb65c0983816d,bnqb3wvqbe,"Mediated Recall_Prolific",1,203,2023-03-04T18:24:03+00:00,5.8238780498505,1,versionA_stim.csv,ReadVersion.csv,Read,Read1,CHERRY,RED,Study2,F,80,63,Test,User,-,,Recall,Recall2,5458,Fire,57.142857142857,-1,-1,0,0,,1
5f79bca83a2eb65c0983816d,bnqb3wvqbe,"Mediated Recall_Prolific",1,204,2023-03-04T18:24:07+00:00,4.0763120651245,1,versionA_stim.csv,ReadVersion.csv,Read,Read1,DIETARY,SACK,Study2,U,97,76,Test,User,-,,Recall,Recall2,3740,Eat,28.571428571429,-1,-1,0,0,,1
5f79bca83a2eb65c0983816d,bnqb3wvqbe,"Mediated Recall_Prolific",1,205,2023-03-04T18:24:12+00:00,4.3840849399567,1,versionA_stim.csv,ReadVersion.csv,Read,Read1,BLAZE,FIRE,Study2,F,81,92,Test,User,-,,Recall,Recall2,4088,Fire,100,-1,-1,1,1,,1
5f79bca83a2eb65c0983816d,bnqb3wvqbe,"Mediated Recall_Prolific",1,206,2023-03-04T18:24:16+00:00,4.4427630901337,1,versionA_stim.csv,ReadVersion.csv,Read,Read1,PANTS,COLLAR,Study2,M,63,74,Test,User,-,,Recall,Recall2,4102,Dress,18.181818181818,-1,-1,0,0,,1
5f79bca83a2eb65c0983816d,bnqb3wvqbe,"Mediated Recall_Prolific",1,207,2023-03-04T18:24:21+00:00,4.7571740150452,1,versionA_stim.csv,ReadVersion.csv,Read,Read1,INCENSE,SMELL,Study2,F,83,65,Test,User,-,,Recall,Recall2,4394,Smell,100,-1,-1,1,1,,1
5f79bca83a2eb65c0983816d,bnqb3wvqbe,"Mediated Recall_Prolific",1,208,2023-03-04T18:24:25+00:00,4.0354578495026,1,versionA_stim.csv,ReadVersion.csv,Read,Read1,STRONG,ACCIDENT,Study2,U,94,64,Test,User,-,,Recall,Recall2,3732,Weak,16.666666666667,-1,-1,0,0,,1
5f79bca83a2eb65c0983816d,bnqb3wvqbe,"Mediated Recall_Prolific",1,209,2023-03-04T18:24:30+00:00,5.1806240081787,1,versionA_stim.csv,ReadVersion.csv,Read,Read1,CACTUS,PLANT,Study2,F,76,88,Test,User,-,,Recall,Recall2,4830,"Plant ",100,-1,-1,1,1,,1
5f79bca83a2eb65c0983816d,bnqb3wvqbe,"Mediated Recall_Prolific",1,210,2023-03-04T18:24:36+00:00,5.5272641181946,1,versionA_stim.csv,ReadVersion.csv,Read,Read1,EYES,SMELL,Study2,M,65,104,Test,User,-,,Recall,Recall2,5181,"Nose ",44.444444444444,-1,-1,0,0,,1
5f79bca83a2eb65c0983816d,bnqb3wvqbe,"Mediated Recall_Prolific",1,211,2023-03-04T18:24:43+00:00,6.8901360034943,1,versionA_stim.csv,ReadVersion.csv,Read,Read1,,,,,,0,Instruct,User,-,"You have completed this section. Please press Enter.",,Instruct7,6580,,,-1,-1,,,,1
5f79bca83a2eb65c0983816d,bnqb3wvqbe,"Mediated Recall_Prolific",1,212,2023-03-04T18:24:50+00:00,7.7675590515137,1,versionA_stim.csv,ReadVersion.csv,Read,Read1,,,,,,0,Instruct,User,-,"The following screen will ask you a few questions abour your experience today. You must complete these questions to receive credit.",,Instruct8,7474,,,-1,-1,,,,1
