Username,ID,ExperimentName,Session,Trial,Date,TimeDif,"Condition Number","Stimuli File","Order File","Condition Description","Condition Notes",Stimuli*Cue,Stimuli*Answer,Stimuli*Shuffle,"Stimuli*Stimuli Notes",Stimuli*Value,Procedure*Item,"Procedure*Trial Type","Procedure*Max Time","Procedure*Min Time",Procedure*Text,"Procedure*Procedure Notes",Procedure*Shuffle,Response*RT,Response*Response,Response*Accuracy,Response*RTfirst,Response*RTlast,Response*strictAcc,Response*lenientAcc,Response*focus,Response*Focus
61363ce02e6022a741d63a6e,7l4ho8p9pr,"Mediated Recall_Prolific",1,1,2023-02-06T00:22:18+00:00,8.5293779373169,3,versionB_stim.csv,ReadVersion.csv,Read,Read2,,,,,,0,Instruct,-,5,"In this section, you will be presented with a series of word pairs. Please study each word pair! Your memory will be tested!",Initial_Instruct,Instruct1,6779,,,-1,-1,,,,1
61363ce02e6022a741d63a6e,7l4ho8p9pr,"Mediated Recall_Prolific",1,2,2023-02-06T00:22:21+00:00,3.1676280498505,3,versionB_stim.csv,ReadVersion.csv,Read,Read2,,,,,,0,Instruct,User,-,"You will now begin. Press Enter when you are ready to begin.",,Instruct16,1567,,,-1,-1,,,,1
61363ce02e6022a741d63a6e,7l4ho8p9pr,"Mediated Recall_Prolific",1,3,2023-02-06T00:22:24+00:00,2.8825659751892,3,versionB_stim.csv,ReadVersion.csv,Read,Read2,TOOL,SHED,BUFFER3,Buffer,3,4,Study,User,-,,Study/JOL,BUFFER,1204,,,-1,-1,,,,1
61363ce02e6022a741d63a6e,7l4ho8p9pr,"Mediated Recall_Prolific",1,4,2023-02-06T00:22:27+00:00,2.5873198509216,3,versionB_stim.csv,ReadVersion.csv,Read,Read2,DAYS,WEAKS,BUFFER3,Buffer,1,3,Study,User,-,,Study/JOL,BUFFER,984,,,-1,-1,,,,1
61363ce02e6022a741d63a6e,7l4ho8p9pr,"Mediated Recall_Prolific",1,5,2023-02-06T00:22:29+00:00,2.0204331874847,3,versionB_stim.csv,ReadVersion.csv,Read,Read2,SPRING,MARCH,BUFFER3,Buffer,4,5,Study,User,-,,Study/JOL,BUFFER,451,,,-1,-1,,,,1
61363ce02e6022a741d63a6e,7l4ho8p9pr,"Mediated Recall_Prolific",1,6,2023-02-06T00:22:32+00:00,3.1991968154907,3,versionB_stim.csv,ReadVersion.csv,Read,Read2,OCTOBER,SPOOKY,BUFFER3,Buffer,5,6,Study,User,-,,Study/JOL,BUFFER,1527,,,-1,-1,,,,1
61363ce02e6022a741d63a6e,7l4ho8p9pr,"Mediated Recall_Prolific",1,7,2023-02-06T00:22:41+00:00,8.9721670150757,3,versionB_stim.csv,ReadVersion.csv,Read,Read2,MONTH,YEAR,BUFFER3,Buffer,2,2,Study,User,-,,Study/JOL,BUFFER,6979,,,-1,-1,,,,0.4
61363ce02e6022a741d63a6e,7l4ho8p9pr,"Mediated Recall_Prolific",1,8,2023-02-06T00:22:52+00:00,11.079061031342,3,versionB_stim.csv,ReadVersion.csv,Read,Read2,MIRROR,CHILDREN,Study2,U,49,33,Study,User,-,,Study/JOL,"Study Phase",8999,,,-1,-1,,,,1
61363ce02e6022a741d63a6e,7l4ho8p9pr,"Mediated Recall_Prolific",1,9,2023-02-06T00:22:55+00:00,3.5000650882721,3,versionB_stim.csv,ReadVersion.csv,Read,Read2,PUSH,CLUTTER,Study2,U,41,9,Study,User,-,,Study/JOL,"Study Phase",1992,,,-1,-1,,,,1
61363ce02e6022a741d63a6e,7l4ho8p9pr,"Mediated Recall_Prolific",1,10,2023-02-06T00:23:09+00:00,13.711224079132,3,versionB_stim.csv,ReadVersion.csv,Read,Read2,VALLEY,PEAK,Study2,M,18,19,Study,User,-,,Study/JOL,"Study Phase",11892,,,-1,-1,,,,1
61363ce02e6022a741d63a6e,7l4ho8p9pr,"Mediated Recall_Prolific",1,11,2023-02-06T00:23:12+00:00,2.475439786911,3,versionB_stim.csv,ReadVersion.csv,Read,Read2,OVEN,BASKET,Study2,M,16,36,Study,User,-,,Study/JOL,"Study Phase",825,,,-1,-1,,,,1
61363ce02e6022a741d63a6e,7l4ho8p9pr,"Mediated Recall_Prolific",1,12,2023-02-06T00:23:14+00:00,2.0580911636353,3,versionB_stim.csv,ReadVersion.csv,Read,Read2,HERD,COW,Study2,F,33,29,Study,User,-,,Study/JOL,"Study Phase",529,,,-1,-1,,,,1
61363ce02e6022a741d63a6e,7l4ho8p9pr,"Mediated Recall_Prolific",1,13,2023-02-06T00:23:16+00:00,2.2810759544373,3,versionB_stim.csv,ReadVersion.csv,Read,Read2,RAZOR,MUSCLE,Study2,M,20,11,Study,User,-,,Study/JOL,"Study Phase",489,,,-1,-1,,,,1
61363ce02e6022a741d63a6e,7l4ho8p9pr,"Mediated Recall_Prolific",1,14,2023-02-06T00:23:19+00:00,2.7846350669861,3,versionB_stim.csv,ReadVersion.csv,Read,Read2,WASP,BUG,Study2,F,34,7,Study,User,-,,Study/JOL,"Study Phase",911,,,-1,-1,,,,1
61363ce02e6022a741d63a6e,7l4ho8p9pr,"Mediated Recall_Prolific",1,15,2023-02-06T00:23:22+00:00,3.1009500026703,3,versionB_stim.csv,ReadVersion.csv,Read,Read2,ARTERY,BRONZE,Study2,U,48,23,Study,User,-,,Study/JOL,"Study Phase",1342,,,-1,-1,,,,1
61363ce02e6022a741d63a6e,7l4ho8p9pr,"Mediated Recall_Prolific",1,16,2023-02-06T00:23:25+00:00,3.6711699962616,3,versionB_stim.csv,ReadVersion.csv,Read,Read2,REALITY,ISLAND,Study2,M,9,25,Study,User,-,,Study/JOL,"Study Phase",1839,,,-1,-1,,,,1
61363ce02e6022a741d63a6e,7l4ho8p9pr,"Mediated Recall_Prolific",1,17,2023-02-06T00:23:28+00:00,2.5517909526825,3,versionB_stim.csv,ReadVersion.csv,Read,Read2,SICK,HIDE,Study2,U,45,43,Study,User,-,,Study/JOL,"Study Phase",605,,,-1,-1,,,,1
61363ce02e6022a741d63a6e,7l4ho8p9pr,"Mediated Recall_Prolific",1,18,2023-02-06T00:23:40+00:00,12.305305957794,3,versionB_stim.csv,ReadVersion.csv,Read,Read2,CHILL,COLD,Study2,F,32,16,Study,User,-,,Study/JOL,"Study Phase",10473,,,-1,-1,,,,0.5
61363ce02e6022a741d63a6e,7l4ho8p9pr,"Mediated Recall_Prolific",1,19,2023-02-06T00:23:50+00:00,9.6845180988312,3,versionB_stim.csv,ReadVersion.csv,Read,Read2,BLAZE,FIRE,Study2,F,26,15,Study,User,-,,Study/JOL,"Study Phase",7539,,,-1,-1,,,,0.027
61363ce02e6022a741d63a6e,7l4ho8p9pr,"Mediated Recall_Prolific",1,20,2023-02-06T00:23:56+00:00,6.4531450271606,3,versionB_stim.csv,ReadVersion.csv,Read,Read2,RAKE,SEED,Study2,M,14,32,Study,User,-,,Study/JOL,"Study Phase",4541,,,-1,-1,,,,1
61363ce02e6022a741d63a6e,7l4ho8p9pr,"Mediated Recall_Prolific",1,21,2023-02-06T00:24:20+00:00,23.268075942993,3,versionB_stim.csv,ReadVersion.csv,Read,Read2,LEAGUE,BASEBALL,Study2,F,29,18,Study,User,-,,Study/JOL,"Study Phase",20656,,,-1,-1,,,,0.029
61363ce02e6022a741d63a6e,7l4ho8p9pr,"Mediated Recall_Prolific",1,22,2023-02-06T00:24:31+00:00,11.048288822174,3,versionB_stim.csv,ReadVersion.csv,Read,Read2,CACTUS,PLANT,Study2,F,21,49,Study,User,-,,Study/JOL,"Study Phase",9141,,,-1,-1,,,,1
61363ce02e6022a741d63a6e,7l4ho8p9pr,"Mediated Recall_Prolific",1,23,2023-02-06T00:24:33+00:00,2.1735000610352,3,versionB_stim.csv,ReadVersion.csv,Read,Read2,FEUD,FIGHT,Study2,F,31,48,Study,User,-,,Study/JOL,"Study Phase",611,,,-1,-1,,,,1
61363ce02e6022a741d63a6e,7l4ho8p9pr,"Mediated Recall_Prolific",1,24,2023-02-06T00:24:35+00:00,2.0946490764618,3,versionB_stim.csv,ReadVersion.csv,Read,Read2,HEAVY,FEATHER,Study2,M,13,8,Study,User,-,,Study/JOL,"Study Phase",690,,,-1,-1,,,,1
61363ce02e6022a741d63a6e,7l4ho8p9pr,"Mediated Recall_Prolific",1,25,2023-02-06T00:24:37+00:00,2.4678070545197,3,versionB_stim.csv,ReadVersion.csv,Read,Read2,HAPPY,CAR,Study2,U,37,37,Study,User,-,,Study/JOL,"Study Phase",813,,,-1,-1,,,,1
61363ce02e6022a741d63a6e,7l4ho8p9pr,"Mediated Recall_Prolific",1,26,2023-02-06T00:24:57+00:00,19.375388860703,3,versionB_stim.csv,ReadVersion.csv,Read,Read2,DEATH,BUSINESS,Study2,U,44,45,Study,User,-,,Study/JOL,"Study Phase",17575,,,-1,-1,,,,0.092
61363ce02e6022a741d63a6e,7l4ho8p9pr,"Mediated Recall_Prolific",1,27,2023-02-06T00:25:11+00:00,14.448492050171,3,versionB_stim.csv,ReadVersion.csv,Read,Read2,NURSE,LAWYER,Study2,M,11,24,Study,User,-,,Study/JOL,"Study Phase",12294,,,-1,-1,,,,0.197
61363ce02e6022a741d63a6e,7l4ho8p9pr,"Mediated Recall_Prolific",1,28,2023-02-06T00:25:16+00:00,4.873703956604,3,versionB_stim.csv,ReadVersion.csv,Read,Read2,BOTH,OUNCE,Study2,U,47,26,Study,User,-,,Study/JOL,"Study Phase",3294,,,-1,-1,,,,1
61363ce02e6022a741d63a6e,7l4ho8p9pr,"Mediated Recall_Prolific",1,29,2023-02-06T00:25:31+00:00,14.428251981735,3,versionB_stim.csv,ReadVersion.csv,Read,Read2,STRONG,ACCIDENT,Study2,U,39,40,Study,User,-,,Study/JOL,"Study Phase",12754,,,-1,-1,,,,0.333
61363ce02e6022a741d63a6e,7l4ho8p9pr,"Mediated Recall_Prolific",1,30,2023-02-06T00:25:34+00:00,3.8026640415192,3,versionB_stim.csv,ReadVersion.csv,Read,Read2,WINDOW,KNOB,Study2,M,19,20,Study,User,-,,Study/JOL,"Study Phase",2129,,,-1,-1,,,,1
61363ce02e6022a741d63a6e,7l4ho8p9pr,"Mediated Recall_Prolific",1,31,2023-02-06T00:25:37+00:00,2.7650880813599,3,versionB_stim.csv,ReadVersion.csv,Read,Read2,CHOP,CUT,Study2,F,22,30,Study,User,-,,Study/JOL,"Study Phase",1144,,,-1,-1,,,,1
61363ce02e6022a741d63a6e,7l4ho8p9pr,"Mediated Recall_Prolific",1,32,2023-02-06T00:25:45+00:00,8.1343729496002,3,versionB_stim.csv,ReadVersion.csv,Read,Read2,DIETARY,SACK,Study2,U,42,46,Study,User,-,,Study/JOL,"Study Phase",6491,,,-1,-1,,,,1
61363ce02e6022a741d63a6e,7l4ho8p9pr,"Mediated Recall_Prolific",1,33,2023-02-06T00:25:49+00:00,3.447851896286,3,versionB_stim.csv,ReadVersion.csv,Read,Read2,CASH,LEG,Study2,U,50,47,Study,User,-,,Study/JOL,"Study Phase",1968,,,-1,-1,,,,1
61363ce02e6022a741d63a6e,7l4ho8p9pr,"Mediated Recall_Prolific",1,34,2023-02-06T00:25:51+00:00,2.297641992569,3,versionB_stim.csv,ReadVersion.csv,Read,Read2,GRILL,THIGH,Study2,M,17,13,Study,User,-,,Study/JOL,"Study Phase",704,,,-1,-1,,,,1
61363ce02e6022a741d63a6e,7l4ho8p9pr,"Mediated Recall_Prolific",1,35,2023-02-06T00:25:53+00:00,2.3202850818634,3,versionB_stim.csv,ReadVersion.csv,Read,Read2,ART,WOLF,Study2,U,38,22,Study,User,-,,Study/JOL,"Study Phase",842,,,-1,-1,,,,1
61363ce02e6022a741d63a6e,7l4ho8p9pr,"Mediated Recall_Prolific",1,36,2023-02-06T00:25:58+00:00,4.7413849830627,3,versionB_stim.csv,ReadVersion.csv,Read,Read2,INCENSE,SMELL,Study2,F,28,50,Study,User,-,,Study/JOL,"Study Phase",3253,,,-1,-1,,,,1
61363ce02e6022a741d63a6e,7l4ho8p9pr,"Mediated Recall_Prolific",1,37,2023-02-06T00:26:25+00:00,27.006716966629,3,versionB_stim.csv,ReadVersion.csv,Read,Read2,ATTIRE,CLOTHES,Study2,F,24,14,Study,User,-,,Study/JOL,"Study Phase",25317,,,-1,-1,,,,0.056
61363ce02e6022a741d63a6e,7l4ho8p9pr,"Mediated Recall_Prolific",1,38,2023-02-06T00:26:28+00:00,3.1805760860443,3,versionB_stim.csv,ReadVersion.csv,Read,Read2,KING,VASE,Study2,U,36,17,Study,User,-,,Study/JOL,"Study Phase",1495,,,-1,-1,,,,1
61363ce02e6022a741d63a6e,7l4ho8p9pr,"Mediated Recall_Prolific",1,39,2023-02-06T00:26:33+00:00,4.8611409664154,3,versionB_stim.csv,ReadVersion.csv,Read,Read2,CHERRY,RED,Study2,F,25,31,Study,User,-,,Study/JOL,"Study Phase",3242,,,-1,-1,,,,1
61363ce02e6022a741d63a6e,7l4ho8p9pr,"Mediated Recall_Prolific",1,40,2023-02-06T00:26:36+00:00,2.503858089447,3,versionB_stim.csv,ReadVersion.csv,Read,Read2,SCHOOL,STOP,Study2,M,7,28,Study,User,-,,Study/JOL,"Study Phase",985,,,-1,-1,,,,1
61363ce02e6022a741d63a6e,7l4ho8p9pr,"Mediated Recall_Prolific",1,41,2023-02-06T00:26:45+00:00,9.5995168685913,3,versionB_stim.csv,ReadVersion.csv,Read,Read2,EYES,SMELL,Study2,M,10,38,Study,User,-,,Study/JOL,"Study Phase",7892,,,-1,-1,,,,0.051
61363ce02e6022a741d63a6e,7l4ho8p9pr,"Mediated Recall_Prolific",1,42,2023-02-06T00:26:52+00:00,6.8717291355133,3,versionB_stim.csv,ReadVersion.csv,Read,Read2,SUMMER,SNOW,Study2,M,6,35,Study,User,-,,Study/JOL,"Study Phase",4947,,,-1,-1,,,,1
61363ce02e6022a741d63a6e,7l4ho8p9pr,"Mediated Recall_Prolific",1,43,2023-02-06T00:27:33+00:00,40.995404005051,3,versionB_stim.csv,ReadVersion.csv,Read,Read2,LEASE,TOIL,Study2,U,46,27,Study,User,-,,Study/JOL,"Study Phase",38753,,,-1,-1,,,,0.311
61363ce02e6022a741d63a6e,7l4ho8p9pr,"Mediated Recall_Prolific",1,44,2023-02-06T00:27:49+00:00,15.830034971237,3,versionB_stim.csv,ReadVersion.csv,Read,Read2,SOAP,DRINK,Study2,M,12,34,Study,User,-,,Study/JOL,"Study Phase",13428,,,-1,-1,,,,0.015
61363ce02e6022a741d63a6e,7l4ho8p9pr,"Mediated Recall_Prolific",1,45,2023-02-06T00:27:52+00:00,3.3181090354919,3,versionB_stim.csv,ReadVersion.csv,Read,Read2,BRIDGE,WATER,Study2,F,35,44,Study,User,-,,Study/JOL,"Study Phase",1602,,,-1,-1,,,,1
61363ce02e6022a741d63a6e,7l4ho8p9pr,"Mediated Recall_Prolific",1,46,2023-02-06T00:27:56+00:00,3.3775448799133,3,versionB_stim.csv,ReadVersion.csv,Read,Read2,SUGAR,RIDDLE,Study2,U,40,12,Study,User,-,,Study/JOL,"Study Phase",1802,,,-1,-1,,,,1
61363ce02e6022a741d63a6e,7l4ho8p9pr,"Mediated Recall_Prolific",1,47,2023-02-06T00:28:01+00:00,5.4181380271912,3,versionB_stim.csv,ReadVersion.csv,Read,Read2,PANTS,COLLAR,Study2,M,8,42,Study,User,-,,Study/JOL,"Study Phase",3526,,,-1,-1,,,,1
61363ce02e6022a741d63a6e,7l4ho8p9pr,"Mediated Recall_Prolific",1,48,2023-02-06T00:28:04+00:00,2.9695320129395,3,versionB_stim.csv,ReadVersion.csv,Read,Read2,TRAP,CAVE,Study2,M,15,51,Study,User,-,,Study/JOL,"Study Phase",1291,,,-1,-1,,,,1
61363ce02e6022a741d63a6e,7l4ho8p9pr,"Mediated Recall_Prolific",1,49,2023-02-06T00:28:13+00:00,8.9049611091614,3,versionB_stim.csv,ReadVersion.csv,Read,Read2,BENCH,HORN,Study2,U,43,39,Study,User,-,,Study/JOL,"Study Phase",6879,,,-1,-1,,,,0.371
61363ce02e6022a741d63a6e,7l4ho8p9pr,"Mediated Recall_Prolific",1,50,2023-02-06T00:28:19+00:00,6.4117398262024,3,versionB_stim.csv,ReadVersion.csv,Read,Read2,HORNET,STING,Study2,F,30,10,Study,User,-,,Study/JOL,"Study Phase",4601,,,-1,-1,,,,1
61363ce02e6022a741d63a6e,7l4ho8p9pr,"Mediated Recall_Prolific",1,51,2023-02-06T00:28:36+00:00,16.306408166885,3,versionB_stim.csv,ReadVersion.csv,Read,Read2,DOCUMENT,PAPER,Study2,F,27,41,Study,User,-,,Study/JOL,"Study Phase",14644,,,-1,-1,,,,0.082
61363ce02e6022a741d63a6e,7l4ho8p9pr,"Mediated Recall_Prolific",1,52,2023-02-06T00:28:38+00:00,2.2820999622345,3,versionB_stim.csv,ReadVersion.csv,Read,Read2,CHISEL,HAMMER,Study2,F,23,21,Study,User,-,,Study/JOL,"Study Phase",649,,,-1,-1,,,,1
61363ce02e6022a741d63a6e,7l4ho8p9pr,"Mediated Recall_Prolific",1,53,2023-02-06T00:28:41+00:00,3.3021678924561,3,versionB_stim.csv,ReadVersion.csv,Read,Read2,TREES,GREEN,BUFFER1,Buffer,56,58,Study,User,-,,Study/JOL,BUFFER2,1556,,,-1,-1,,,,1
61363ce02e6022a741d63a6e,7l4ho8p9pr,"Mediated Recall_Prolific",1,54,2023-02-06T00:28:45+00:00,3.3327980041504,3,versionB_stim.csv,ReadVersion.csv,Read,Read2,SHERRIF,POLICE,BUFFER2,Buffer,107,107,Study,User,-,,Study/JOL,BUFFER2,1511,,,-1,-1,,,,1
61363ce02e6022a741d63a6e,7l4ho8p9pr,"Mediated Recall_Prolific",1,55,2023-02-06T00:29:06+00:00,21.4903819561,3,versionB_stim.csv,ReadVersion.csv,Read,Read2,MALT,CHOCOLATE,BUFFER2,Buffer,108,108,Study,User,-,,Study/JOL,BUFFER2,19501,,,-1,-1,,,,0.278
61363ce02e6022a741d63a6e,7l4ho8p9pr,"Mediated Recall_Prolific",1,56,2023-02-06T00:29:10+00:00,3.5320541858673,3,versionB_stim.csv,ReadVersion.csv,Read,Read2,CARROT,POTATO,BUFFER4,Buffer,51,53,Study,User,-,,Study/JOL,BUFFER2,1568,,,-1,-1,,,,1
61363ce02e6022a741d63a6e,7l4ho8p9pr,"Mediated Recall_Prolific",1,57,2023-02-06T00:29:17+00:00,6.9470858573914,3,versionB_stim.csv,ReadVersion.csv,Read,Read2,PEANUT,BUTTER,BUFFER1,Buffer,58,59,Study,User,-,,Study/JOL,BUFFER2,5167,,,-1,-1,,,,1
61363ce02e6022a741d63a6e,7l4ho8p9pr,"Mediated Recall_Prolific",1,58,2023-02-06T00:29:30+00:00,13.340219974518,3,versionB_stim.csv,ReadVersion.csv,Read,Read2,,,,,,0,Instruct,User,-,"You have completed this section. Please press Enter.",Filler_Instruction,Instruct2,11566,,,-1,-1,,,,1
61363ce02e6022a741d63a6e,7l4ho8p9pr,"Mediated Recall_Prolific",1,59,2023-02-06T00:31:32+00:00,122.34846997261,3,versionB_stim.csv,ReadVersion.csv,Read,Read2,,,,,,0,FreeRecall,120,120,"Please list the 50 US states in alphabetical order. The task will automatically advance to the next screen after two minutes.",,Filler1,120002,"Alabama Alaska Arizona Arkansas California Colorado Connecticut Deleware",0,7207,97450,0,0,,0.697
61363ce02e6022a741d63a6e,7l4ho8p9pr,"Mediated Recall_Prolific",1,60,2023-02-06T00:31:48+00:00,15.349287986755,3,versionB_stim.csv,ReadVersion.csv,Read,Read2,,,,,,0,Instruct,-,10,"You will now be presented with the first word from each of the previously studied item pairs. Please type the missing word. If you do not know the word, you may guess or press Enter to skip forward to the next pair.",,Instruct3,12899,,,-1,-1,,,,0.016
61363ce02e6022a741d63a6e,7l4ho8p9pr,"Mediated Recall_Prolific",1,61,2023-02-06T00:32:00+00:00,12.660521030426,3,versionB_stim.csv,ReadVersion.csv,Read,Read2,BOTH,OUNCE,Study2,U,47,26,Test,User,-,,Recall,Recall1,11057,CHIZEL,36.363636363636,9081,9690,0,0,,1
61363ce02e6022a741d63a6e,7l4ho8p9pr,"Mediated Recall_Prolific",1,62,2023-02-06T00:32:08+00:00,8.1596021652222,3,versionB_stim.csv,ReadVersion.csv,Read,Read2,WINDOW,KNOB,Study2,M,19,20,Test,User,-,,Recall,Recall1,6420,GLASS,0,5579,6183,0,0,,1
61363ce02e6022a741d63a6e,7l4ho8p9pr,"Mediated Recall_Prolific",1,63,2023-02-06T00:32:15+00:00,6.3328900337219,3,versionB_stim.csv,ReadVersion.csv,Read,Read2,NURSE,LAWYER,Study2,M,11,24,Test,User,-,,Recall,Recall1,4637,DOCTOR,16.666666666667,3610,4287,0,0,,1
61363ce02e6022a741d63a6e,7l4ho8p9pr,"Mediated Recall_Prolific",1,64,2023-02-06T00:32:20+00:00,5.3111398220062,3,versionB_stim.csv,ReadVersion.csv,Read,Read2,BRIDGE,WATER,Study2,F,35,44,Test,User,-,,Recall,Recall1,3760,ROAD,22.222222222222,2584,3493,0,0,,1
61363ce02e6022a741d63a6e,7l4ho8p9pr,"Mediated Recall_Prolific",1,65,2023-02-06T00:32:25+00:00,4.6356270313263,3,versionB_stim.csv,ReadVersion.csv,Read,Read2,KING,VASE,Study2,U,36,17,Test,User,-,,Recall,Recall1,3091,QUEEN,22.222222222222,2247,2733,0,0,,1
61363ce02e6022a741d63a6e,7l4ho8p9pr,"Mediated Recall_Prolific",1,66,2023-02-06T00:32:32+00:00,6.8377170562744,3,versionB_stim.csv,ReadVersion.csv,Read,Read2,ART,WOLF,Study2,U,38,22,Test,User,-,,Recall,Recall1,5184,,0,4049,4050,0,0,,1
61363ce02e6022a741d63a6e,7l4ho8p9pr,"Mediated Recall_Prolific",1,67,2023-02-06T00:32:37+00:00,5.9428110122681,3,versionB_stim.csv,ReadVersion.csv,Read,Read2,HERD,COW,Study2,F,33,29,Test,User,-,,Recall,Recall1,4330,"BARN\",0,3685,4326,0,0,,1
61363ce02e6022a741d63a6e,7l4ho8p9pr,"Mediated Recall_Prolific",1,68,2023-02-06T00:32:41+00:00,3.4711680412292,3,versionB_stim.csv,ReadVersion.csv,Read,Read2,TRAP,CAVE,Study2,M,15,51,Test,User,-,,Recall,Recall1,1834,,0,-1,-1,0,0,,1
61363ce02e6022a741d63a6e,7l4ho8p9pr,"Mediated Recall_Prolific",1,69,2023-02-06T00:32:49+00:00,7.7860980033875,3,versionB_stim.csv,ReadVersion.csv,Read,Read2,HAPPY,CAR,Study2,U,37,37,Test,User,-,,Recall,Recall1,5901,SAD,33.333333333333,1701,5685,0,0,,1
61363ce02e6022a741d63a6e,7l4ho8p9pr,"Mediated Recall_Prolific",1,70,2023-02-06T00:32:52+00:00,2.9114968776703,3,versionB_stim.csv,ReadVersion.csv,Read,Read2,ARTERY,BRONZE,Study2,U,48,23,Test,User,-,,Recall,Recall1,1358,,0,-1,-1,0,0,,1
61363ce02e6022a741d63a6e,7l4ho8p9pr,"Mediated Recall_Prolific",1,71,2023-02-06T00:32:55+00:00,3.1069600582123,3,versionB_stim.csv,ReadVersion.csv,Read,Read2,INCENSE,SMELL,Study2,F,28,50,Test,User,-,,Recall,Recall1,1521,,0,-1,-1,0,0,,1
61363ce02e6022a741d63a6e,7l4ho8p9pr,"Mediated Recall_Prolific",1,72,2023-02-06T00:33:46+00:00,51.57941198349,3,versionB_stim.csv,ReadVersion.csv,Read,Read2,SICK,HIDE,Study2,U,45,43,Test,User,-,,Recall,Recall1,50010,HURT,25,49514,49836,0,0,,0.084
61363ce02e6022a741d63a6e,7l4ho8p9pr,"Mediated Recall_Prolific",1,73,2023-02-06T00:34:05+00:00,19.079226016998,3,versionB_stim.csv,ReadVersion.csv,Read,Read2,EYES,SMELL,Study2,M,10,38,Test,User,-,,Recall,Recall1,17235,,0,-1,-1,0,0,,0.279
61363ce02e6022a741d63a6e,7l4ho8p9pr,"Mediated Recall_Prolific",1,74,2023-02-06T00:34:13+00:00,7.5461449623108,3,versionB_stim.csv,ReadVersion.csv,Read,Read2,FEUD,FIGHT,Study2,F,31,48,Test,User,-,,Recall,Recall1,5056,FIGHT,100,4495,4867,1,1,,1
61363ce02e6022a741d63a6e,7l4ho8p9pr,"Mediated Recall_Prolific",1,75,2023-02-06T00:34:35+00:00,22.267457962036,3,versionB_stim.csv,ReadVersion.csv,Read,Read2,HEAVY,FEATHER,Study2,M,13,8,Test,User,-,,Recall,Recall1,20460,LOAD,18.181818181818,19863,20217,0,0,,0.34
61363ce02e6022a741d63a6e,7l4ho8p9pr,"Mediated Recall_Prolific",1,76,2023-02-06T00:35:01+00:00,26.023714065552,3,versionB_stim.csv,ReadVersion.csv,Read,Read2,OVEN,BASKET,Study2,M,16,36,Test,User,-,,Recall,Recall1,23908,LOAD,20,20704,21125,0,0,,0.39
61363ce02e6022a741d63a6e,7l4ho8p9pr,"Mediated Recall_Prolific",1,77,2023-02-06T00:35:06+00:00,4.4041950702667,3,versionB_stim.csv,ReadVersion.csv,Read,Read2,SOAP,DRINK,Study2,M,12,34,Test,User,-,,Recall,Recall1,2492,,0,-1,-1,0,0,,1
61363ce02e6022a741d63a6e,7l4ho8p9pr,"Mediated Recall_Prolific",1,78,2023-02-06T00:35:10+00:00,3.8744189739227,3,versionB_stim.csv,ReadVersion.csv,Read,Read2,GRILL,THIGH,Study2,M,17,13,Test,User,-,,Recall,Recall1,2432,,0,-1,-1,0,0,,1
61363ce02e6022a741d63a6e,7l4ho8p9pr,"Mediated Recall_Prolific",1,79,2023-02-06T00:35:34+00:00,24.04735994339,3,versionB_stim.csv,ReadVersion.csv,Read,Read2,LEAGUE,BASEBALL,Study2,F,29,18,Test,User,-,,Recall,Recall1,22176,,0,-1,-1,0,0,,0.928
61363ce02e6022a741d63a6e,7l4ho8p9pr,"Mediated Recall_Prolific",1,80,2023-02-06T00:35:58+00:00,24.282536029816,3,versionB_stim.csv,ReadVersion.csv,Read,Read2,ATTIRE,CLOTHES,Study2,F,24,14,Test,User,-,,Recall,Recall1,21924,,0,-1,-1,0,0,,0
61363ce02e6022a741d63a6e,7l4ho8p9pr,"Mediated Recall_Prolific",1,81,2023-02-06T00:36:39+00:00,41.236893892288,3,versionB_stim.csv,ReadVersion.csv,Read,Read2,STRONG,ACCIDENT,Study2,U,39,40,Test,User,-,,Recall,Recall1,38321,,0,-1,-1,0,0,,0.089
61363ce02e6022a741d63a6e,7l4ho8p9pr,"Mediated Recall_Prolific",1,82,2023-02-06T00:36:46+00:00,6.7281970977783,3,versionB_stim.csv,ReadVersion.csv,Read,Read2,LEASE,TOIL,Study2,U,46,27,Test,User,-,,Recall,Recall1,4567,,0,-1,-1,0,0,,0.739
61363ce02e6022a741d63a6e,7l4ho8p9pr,"Mediated Recall_Prolific",1,83,2023-02-06T00:36:59+00:00,13.336668014526,3,versionB_stim.csv,ReadVersion.csv,Read,Read2,DEATH,BUSINESS,Study2,U,44,45,Test,User,-,,Recall,Recall1,10999,,0,-1,-1,0,0,,0.14
61363ce02e6022a741d63a6e,7l4ho8p9pr,"Mediated Recall_Prolific",1,84,2023-02-06T00:37:22+00:00,22.773810863495,3,versionB_stim.csv,ReadVersion.csv,Read,Read2,SCHOOL,STOP,Study2,M,7,28,Test,User,-,,Recall,Recall1,19730,,0,-1,-1,0,0,,0.031
61363ce02e6022a741d63a6e,7l4ho8p9pr,"Mediated Recall_Prolific",1,85,2023-02-06T00:38:14+00:00,52.409674167633,3,versionB_stim.csv,ReadVersion.csv,Read,Read2,CACTUS,PLANT,Study2,F,21,49,Test,User,-,,Recall,Recall1,50397,PLANT,100,49728,50160,1,1,,0.165
61363ce02e6022a741d63a6e,7l4ho8p9pr,"Mediated Recall_Prolific",1,86,2023-02-06T00:38:25+00:00,10.424371004105,3,versionB_stim.csv,ReadVersion.csv,Read,Read2,CASH,LEG,Study2,U,50,47,Test,User,-,,Recall,Recall1,8060,,0,-1,-1,0,0,,0.026
61363ce02e6022a741d63a6e,7l4ho8p9pr,"Mediated Recall_Prolific",1,87,2023-02-06T00:38:37+00:00,12.122370004654,3,versionB_stim.csv,ReadVersion.csv,Read,Read2,BENCH,HORN,Study2,U,43,39,Test,User,-,,Recall,Recall1,9709,,0,-1,-1,0,0,,1
61363ce02e6022a741d63a6e,7l4ho8p9pr,"Mediated Recall_Prolific",1,88,2023-02-06T00:39:40+00:00,63.424434900284,3,versionB_stim.csv,ReadVersion.csv,Read,Read2,CHILL,COLD,Study2,F,32,16,Test,User,-,,Recall,Recall1,61446,COLD,100,61012,61238,1,1,,0.156
61363ce02e6022a741d63a6e,7l4ho8p9pr,"Mediated Recall_Prolific",1,89,2023-02-06T00:39:46+00:00,6.1048460006714,3,versionB_stim.csv,ReadVersion.csv,Read,Read2,BLAZE,FIRE,Study2,F,26,15,Test,User,-,,Recall,Recall1,2511,,0,-1,-1,0,0,,1
61363ce02e6022a741d63a6e,7l4ho8p9pr,"Mediated Recall_Prolific",1,90,2023-02-06T00:40:26+00:00,39.444936037064,3,versionB_stim.csv,ReadVersion.csv,Read,Read2,RAZOR,MUSCLE,Study2,M,20,11,Test,User,-,,Recall,Recall1,35721,THIN,0,33699,35047,0,0,,0.131
61363ce02e6022a741d63a6e,7l4ho8p9pr,"Mediated Recall_Prolific",1,91,2023-02-06T00:40:54+00:00,28.57444190979,3,versionB_stim.csv,ReadVersion.csv,Read,Read2,DIETARY,SACK,Study2,U,42,46,Test,User,-,,Recall,Recall1,24851,,0,-1,-1,0,0,,0
61363ce02e6022a741d63a6e,7l4ho8p9pr,"Mediated Recall_Prolific",1,92,2023-02-06T00:41:05+00:00,10.423515081406,3,versionB_stim.csv,ReadVersion.csv,Read,Read2,CHISEL,HAMMER,Study2,F,23,21,Test,User,-,,Recall,Recall1,6563,HAMMER,100,4618,5209,1,1,,0.806
61363ce02e6022a741d63a6e,7l4ho8p9pr,"Mediated Recall_Prolific",1,93,2023-02-06T00:41:54+00:00,49.602571964264,3,versionB_stim.csv,ReadVersion.csv,Read,Read2,WASP,BUG,Study2,F,34,7,Test,User,-,,Recall,Recall1,46335,,0,-1,-1,0,0,,0.196
61363ce02e6022a741d63a6e,7l4ho8p9pr,"Mediated Recall_Prolific",1,94,2023-02-06T00:42:40+00:00,45.086719989777,3,versionB_stim.csv,ReadVersion.csv,Read,Read2,SUGAR,RIDDLE,Study2,U,40,12,Test,User,-,,Recall,Recall1,40759,,0,-1,-1,0,0,,0.005
61363ce02e6022a741d63a6e,7l4ho8p9pr,"Mediated Recall_Prolific",1,95,2023-02-06T00:42:51+00:00,11.712933063507,3,versionB_stim.csv,ReadVersion.csv,Read,Read2,PUSH,CLUTTER,Study2,U,41,9,Test,User,-,,Recall,Recall1,9229,,0,-1,-1,0,0,,0.684
61363ce02e6022a741d63a6e,7l4ho8p9pr,"Mediated Recall_Prolific",1,96,2023-02-06T00:43:30+00:00,39.00350189209,3,versionB_stim.csv,ReadVersion.csv,Read,Read2,VALLEY,PEAK,Study2,M,18,19,Test,User,-,,Recall,Recall1,36024,MOUNTAIn,16.666666666667,35086,35782,0,0,,0.073
61363ce02e6022a741d63a6e,7l4ho8p9pr,"Mediated Recall_Prolific",1,97,2023-02-06T00:44:01+00:00,30.367957115173,3,versionB_stim.csv,ReadVersion.csv,Read,Read2,CHOP,CUT,Study2,F,22,30,Test,User,-,,Recall,Recall1,27370,,0,-1,-1,0,0,,0.06
61363ce02e6022a741d63a6e,7l4ho8p9pr,"Mediated Recall_Prolific",1,98,2023-02-06T00:44:14+00:00,13.657929897308,3,versionB_stim.csv,ReadVersion.csv,Read,Read2,PANTS,COLLAR,Study2,M,8,42,Test,User,-,,Recall,Recall1,11234,,0,-1,-1,0,0,,1
61363ce02e6022a741d63a6e,7l4ho8p9pr,"Mediated Recall_Prolific",1,99,2023-02-06T00:44:18+00:00,3.5765299797058,3,versionB_stim.csv,ReadVersion.csv,Read,Read2,SUMMER,SNOW,Study2,M,6,35,Test,User,-,,Recall,Recall1,1842,,0,-1,-1,0,0,,1
61363ce02e6022a741d63a6e,7l4ho8p9pr,"Mediated Recall_Prolific",1,100,2023-02-06T00:44:33+00:00,14.781805038452,3,versionB_stim.csv,ReadVersion.csv,Read,Read2,DOCUMENT,PAPER,Study2,F,27,41,Test,User,-,,Recall,Recall1,12712,PAPER,100,11945,12472,1,1,,1
61363ce02e6022a741d63a6e,7l4ho8p9pr,"Mediated Recall_Prolific",1,101,2023-02-06T00:44:38+00:00,5.2681181430817,3,versionB_stim.csv,ReadVersion.csv,Read,Read2,MIRROR,CHILDREN,Study2,U,49,33,Test,User,-,,Recall,Recall1,3352,CHILDREN,100,2296,3111,1,1,,1
61363ce02e6022a741d63a6e,7l4ho8p9pr,"Mediated Recall_Prolific",1,102,2023-02-06T00:44:43+00:00,5.4467859268188,3,versionB_stim.csv,ReadVersion.csv,Read,Read2,HORNET,STING,Study2,F,30,10,Test,User,-,,Recall,Recall1,3512,BEE,0,2254,2691,0,0,,1
61363ce02e6022a741d63a6e,7l4ho8p9pr,"Mediated Recall_Prolific",1,103,2023-02-06T00:44:46+00:00,2.896852016449,3,versionB_stim.csv,ReadVersion.csv,Read,Read2,REALITY,ISLAND,Study2,M,9,25,Test,User,-,,Recall,Recall1,1201,,0,-1,-1,0,0,,1
61363ce02e6022a741d63a6e,7l4ho8p9pr,"Mediated Recall_Prolific",1,104,2023-02-06T00:44:50+00:00,4.1455829143524,3,versionB_stim.csv,ReadVersion.csv,Read,Read2,CHERRY,RED,Study2,F,25,31,Test,User,-,,Recall,Recall1,2459,,0,-1,-1,0,0,,1
61363ce02e6022a741d63a6e,7l4ho8p9pr,"Mediated Recall_Prolific",1,105,2023-02-06T00:44:54+00:00,3.3662090301514,3,versionB_stim.csv,ReadVersion.csv,Read,Read2,RAKE,SEED,Study2,M,14,32,Test,User,-,,Recall,Recall1,1577,,0,-1,-1,0,0,,1
61363ce02e6022a741d63a6e,7l4ho8p9pr,"Mediated Recall_Prolific",1,106,2023-02-06T00:45:06+00:00,12.280810117722,3,versionB_stim.csv,ReadVersion.csv,Read,Read2,,,,,,0,Instruct,-,10,"You will now be presented with a new set of word pairs. Please study each pair. Remember that your memory will be tested! When finished, press Enter to move to the next pair.",Initial_Instruct,Instruct4,10542,,,-1,-1,,,,1
61363ce02e6022a741d63a6e,7l4ho8p9pr,"Mediated Recall_Prolific",1,107,2023-02-06T00:45:10+00:00,3.855721950531,3,versionB_stim.csv,ReadVersion.csv,Read,Read2,,,,,,0,Instruct,User,-,"Press Enter when you are readty to begin",,Instruct11,2012,,,-1,-1,,,,1
61363ce02e6022a741d63a6e,7l4ho8p9pr,"Mediated Recall_Prolific",1,108,2023-02-06T00:45:18+00:00,7.9814119338989,3,versionB_stim.csv,ReadVersion.csv,Read,Read2,SCARE,FRIGHT,BUFFER1,Buffer,59,57,Study,User,-,,Study/JOL,BUFFER2,5927,,,-1,-1,,,,0.905
61363ce02e6022a741d63a6e,7l4ho8p9pr,"Mediated Recall_Prolific",1,109,2023-02-06T00:45:21+00:00,3.1990299224854,3,versionB_stim.csv,ReadVersion.csv,Read,Read2,ICE,FROZEN,BUFFER4,Buffer,54,55,Study,User,-,,Study/JOL,BUFFER2,1241,,,-1,-1,,,,1
61363ce02e6022a741d63a6e,7l4ho8p9pr,"Mediated Recall_Prolific",1,110,2023-02-06T00:45:24+00:00,3.016704082489,3,versionB_stim.csv,ReadVersion.csv,Read,Read2,PITCHER,CATCHER,BUFFER1,Buffer,57,61,Study,User,-,,Study/JOL,BUFFER2,1308,,,-1,-1,,,,1
61363ce02e6022a741d63a6e,7l4ho8p9pr,"Mediated Recall_Prolific",1,111,2023-02-06T00:45:27+00:00,2.9795610904694,3,versionB_stim.csv,ReadVersion.csv,Read,Read2,CAMP,ADVENTURE,BUFFER4,Buffer,55,54,Study,User,-,,Study/JOL,BUFFER2,927,,,-1,-1,,,,1
61363ce02e6022a741d63a6e,7l4ho8p9pr,"Mediated Recall_Prolific",1,112,2023-02-06T00:45:29+00:00,2.3281579017639,3,versionB_stim.csv,ReadVersion.csv,Read,Read2,NOODLE,STRING,BUFFER4,Buffer,52,56,Study,User,-,,Study/JOL,BUFFER2,698,,,-1,-1,,,,1
61363ce02e6022a741d63a6e,7l4ho8p9pr,"Mediated Recall_Prolific",1,113,2023-02-06T00:45:32+00:00,2.6615569591522,3,versionB_stim.csv,ReadVersion.csv,Read,Read2,CRY,BOTTLE,Study1,M,71,72,Study,User,-,,Study/JOL,"Study Phase2",617,,,-1,-1,,,,1
61363ce02e6022a741d63a6e,7l4ho8p9pr,"Mediated Recall_Prolific",1,114,2023-02-06T00:45:35+00:00,2.8050119876862,3,versionB_stim.csv,ReadVersion.csv,Read,Read2,FUZZY,BANG,Study1,U,105,93,Study,User,-,,Study/JOL,"Study Phase2",1007,,,-1,-1,,,,1
61363ce02e6022a741d63a6e,7l4ho8p9pr,"Mediated Recall_Prolific",1,115,2023-02-06T00:45:38+00:00,2.8457360267639,3,versionB_stim.csv,ReadVersion.csv,Read,Read2,CRACKLE,ELECTION,Study1,U,94,106,Study,User,-,,Study/JOL,"Study Phase2",824,,,-1,-1,,,,1
61363ce02e6022a741d63a6e,7l4ho8p9pr,"Mediated Recall_Prolific",1,116,2023-02-06T00:45:41+00:00,2.9075701236725,3,versionB_stim.csv,ReadVersion.csv,Read,Read2,DAY,DARK,Study1,M,73,104,Study,User,-,,Study/JOL,"Study Phase2",927,,,-1,-1,,,,1
61363ce02e6022a741d63a6e,7l4ho8p9pr,"Mediated Recall_Prolific",1,117,2023-02-06T00:45:45+00:00,4.034970998764,3,versionB_stim.csv,ReadVersion.csv,Read,Read2,CIRCLE,DANCE,Study1,M,68,92,Study,User,-,,Study/JOL,"Study Phase2",1107,,,-1,-1,,,,1
61363ce02e6022a741d63a6e,7l4ho8p9pr,"Mediated Recall_Prolific",1,118,2023-02-06T00:45:47+00:00,2.795872926712,3,versionB_stim.csv,ReadVersion.csv,Read,Read2,ORCHID,FLOWER,Study1,F,89,76,Study,User,-,,Study/JOL,"Study Phase2",959,,,-1,-1,,,,1
61363ce02e6022a741d63a6e,7l4ho8p9pr,"Mediated Recall_Prolific",1,119,2023-02-06T00:45:50+00:00,2.8711259365082,3,versionB_stim.csv,ReadVersion.csv,Read,Read2,WORD,SENTENCE,Study1,F,82,96,Study,User,-,,Study/JOL,"Study Phase2",892,,,-1,-1,,,,1
61363ce02e6022a741d63a6e,7l4ho8p9pr,"Mediated Recall_Prolific",1,120,2023-02-06T00:45:54+00:00,3.197890996933,3,versionB_stim.csv,ReadVersion.csv,Read,Read2,TUNA,FISH,Study1,F,90,86,Study,User,-,,Study/JOL,"Study Phase2",1507,,,-1,-1,,,,1
61363ce02e6022a741d63a6e,7l4ho8p9pr,"Mediated Recall_Prolific",1,121,2023-02-06T00:45:57+00:00,3.15647315979,3,versionB_stim.csv,ReadVersion.csv,Read,Read2,SWAN,BIRD,Study1,F,81,95,Study,User,-,,Study/JOL,"Study Phase2",1336,,,-1,-1,,,,1
61363ce02e6022a741d63a6e,7l4ho8p9pr,"Mediated Recall_Prolific",1,122,2023-02-06T00:46:00+00:00,2.9879529476166,3,versionB_stim.csv,ReadVersion.csv,Read,Read2,SOON,BELT,Study1,U,101,91,Study,User,-,,Study/JOL,"Study Phase2",1131,,,-1,-1,,,,1
61363ce02e6022a741d63a6e,7l4ho8p9pr,"Mediated Recall_Prolific",1,123,2023-02-06T00:46:03+00:00,3.0025110244751,3,versionB_stim.csv,ReadVersion.csv,Read,Read2,LION,STRIPES,Study1,M,61,73,Study,User,-,,Study/JOL,"Study Phase2",1163,,,-1,-1,,,,1
61363ce02e6022a741d63a6e,7l4ho8p9pr,"Mediated Recall_Prolific",1,124,2023-02-06T00:46:09+00:00,6.4232039451599,3,versionB_stim.csv,ReadVersion.csv,Read,Read2,VEHICLE,CHARM,Study1,U,95,62,Study,User,-,,Study/JOL,"Study Phase2",4514,,,-1,-1,,,,1
61363ce02e6022a741d63a6e,7l4ho8p9pr,"Mediated Recall_Prolific",1,125,2023-02-06T00:46:15+00:00,6.1354188919067,3,versionB_stim.csv,ReadVersion.csv,Read,Read2,CEILING,CARPET,Study1,M,70,67,Study,User,-,,Study/JOL,"Study Phase2",3546,,,-1,-1,,,,1
61363ce02e6022a741d63a6e,7l4ho8p9pr,"Mediated Recall_Prolific",1,126,2023-02-06T00:46:18+00:00,2.9929962158203,3,versionB_stim.csv,ReadVersion.csv,Read,Read2,MEAT,KEYS,Study1,U,96,90,Study,User,-,,Study/JOL,"Study Phase2",1263,,,-1,-1,,,,1
61363ce02e6022a741d63a6e,7l4ho8p9pr,"Mediated Recall_Prolific",1,127,2023-02-06T00:46:21+00:00,2.6166479587555,3,versionB_stim.csv,ReadVersion.csv,Read,Read2,HORSE,WHEEL,Study1,M,69,100,Study,User,-,,Study/JOL,"Study Phase2",834,,,-1,-1,,,,1
61363ce02e6022a741d63a6e,7l4ho8p9pr,"Mediated Recall_Prolific",1,128,2023-02-06T00:46:24+00:00,2.7055749893188,3,versionB_stim.csv,ReadVersion.csv,Read,Read2,CREDIT,CARD,Study1,F,88,102,Study,User,-,,Study/JOL,"Study Phase2",887,,,-1,-1,,,,1
61363ce02e6022a741d63a6e,7l4ho8p9pr,"Mediated Recall_Prolific",1,129,2023-02-06T00:46:27+00:00,3.5479898452759,3,versionB_stim.csv,ReadVersion.csv,Read,Read2,SIGN,TICK,Study1,U,102,69,Study,User,-,,Study/JOL,"Study Phase2",1531,,,-1,-1,,,,1
61363ce02e6022a741d63a6e,7l4ho8p9pr,"Mediated Recall_Prolific",1,130,2023-02-06T00:46:31+00:00,4.0894010066986,3,versionB_stim.csv,ReadVersion.csv,Read,Read2,BEACH,BOX,Study1,M,62,85,Study,User,-,,Study/JOL,"Study Phase2",1987,,,-1,-1,,,,1
61363ce02e6022a741d63a6e,7l4ho8p9pr,"Mediated Recall_Prolific",1,131,2023-02-06T00:46:35+00:00,3.9319000244141,3,versionB_stim.csv,ReadVersion.csv,Read,Read2,STRETCH,CLOTH,Study1,U,92,63,Study,User,-,,Study/JOL,"Study Phase2",1814,,,-1,-1,,,,1
61363ce02e6022a741d63a6e,7l4ho8p9pr,"Mediated Recall_Prolific",1,132,2023-02-06T00:46:58+00:00,23.208435058594,3,versionB_stim.csv,ReadVersion.csv,Read,Read2,LISTEN,FICTION,Study1,U,99,74,Study,User,-,,Study/JOL,"Study Phase2",21022,,,-1,-1,,,,0.105
61363ce02e6022a741d63a6e,7l4ho8p9pr,"Mediated Recall_Prolific",1,133,2023-02-06T00:47:04+00:00,5.5900909900665,3,versionB_stim.csv,ReadVersion.csv,Read,Read2,WEDDING,FINGER,Study1,M,72,82,Study,User,-,,Study/JOL,"Study Phase2",3402,,,-1,-1,,,,1
61363ce02e6022a741d63a6e,7l4ho8p9pr,"Mediated Recall_Prolific",1,134,2023-02-06T00:47:07+00:00,3.2660529613495,3,versionB_stim.csv,ReadVersion.csv,Read,Read2,SCALP,HEAD,Study1,F,78,81,Study,User,-,,Study/JOL,"Study Phase2",1480,,,-1,-1,,,,1
61363ce02e6022a741d63a6e,7l4ho8p9pr,"Mediated Recall_Prolific",1,135,2023-02-06T00:47:10+00:00,3.1749510765076,3,versionB_stim.csv,ReadVersion.csv,Read,Read2,MAZE,PHONE,Study1,U,97,66,Study,User,-,,Study/JOL,"Study Phase2",1705,,,-1,-1,,,,1
61363ce02e6022a741d63a6e,7l4ho8p9pr,"Mediated Recall_Prolific",1,136,2023-02-06T00:47:13+00:00,2.9841859340668,3,versionB_stim.csv,ReadVersion.csv,Read,Read2,SHELL,SHAKE,Study1,U,98,84,Study,User,-,,Study/JOL,"Study Phase2",1320,,,-1,-1,,,,1
61363ce02e6022a741d63a6e,7l4ho8p9pr,"Mediated Recall_Prolific",1,137,2023-02-06T00:47:16+00:00,3.1365089416504,3,versionB_stim.csv,ReadVersion.csv,Read,Read2,TOOTH,HAIR,Study1,M,74,64,Study,User,-,,Study/JOL,"Study Phase2",1579,,,-1,-1,,,,1
61363ce02e6022a741d63a6e,7l4ho8p9pr,"Mediated Recall_Prolific",1,138,2023-02-06T00:47:19+00:00,2.6226651668549,3,versionB_stim.csv,ReadVersion.csv,Read,Read2,TREE,SYRUP,Study1,M,66,78,Study,User,-,,Study/JOL,"Study Phase2",1005,,,-1,-1,,,,1
61363ce02e6022a741d63a6e,7l4ho8p9pr,"Mediated Recall_Prolific",1,139,2023-02-06T00:47:22+00:00,2.6033518314362,3,versionB_stim.csv,ReadVersion.csv,Read,Read2,SIP,DRINK,Study1,F,87,87,Study,User,-,,Study/JOL,"Study Phase2",1135,,,-1,-1,,,,1
61363ce02e6022a741d63a6e,7l4ho8p9pr,"Mediated Recall_Prolific",1,140,2023-02-06T00:47:24+00:00,2.7800271511078,3,versionB_stim.csv,ReadVersion.csv,Read,Read2,MULE,DONKEY,Study1,F,79,103,Study,User,-,,Study/JOL,"Study Phase2",1100,,,-1,-1,,,,1
61363ce02e6022a741d63a6e,7l4ho8p9pr,"Mediated Recall_Prolific",1,141,2023-02-06T00:47:27+00:00,2.396075963974,3,versionB_stim.csv,ReadVersion.csv,Read,Read2,MIRROR,MAROON,Study1,U,91,88,Study,User,-,,Study/JOL,"Study Phase2",850,,,-1,-1,,,,1
61363ce02e6022a741d63a6e,7l4ho8p9pr,"Mediated Recall_Prolific",1,142,2023-02-06T00:47:32+00:00,4.9082379341125,3,versionB_stim.csv,ReadVersion.csv,Read,Read2,HARD,COTTON,Study1,M,75,97,Study,User,-,,Study/JOL,"Study Phase2",3285,,,-1,-1,,,,1
61363ce02e6022a741d63a6e,7l4ho8p9pr,"Mediated Recall_Prolific",1,143,2023-02-06T00:47:35+00:00,3.4767870903015,3,versionB_stim.csv,ReadVersion.csv,Read,Read2,TEMPERATURE,MORNING,Study1,U,103,79,Study,User,-,,Study/JOL,"Study Phase2",1472,,,-1,-1,,,,1
61363ce02e6022a741d63a6e,7l4ho8p9pr,"Mediated Recall_Prolific",1,144,2023-02-06T00:47:40+00:00,4.4038090705872,3,versionB_stim.csv,ReadVersion.csv,Read,Read2,NAP,SLEEP,Study1,F,84,99,Study,User,-,,Study/JOL,"Study Phase2",2670,,,-1,-1,,,,1
61363ce02e6022a741d63a6e,7l4ho8p9pr,"Mediated Recall_Prolific",1,145,2023-02-06T00:47:43+00:00,2.8957698345184,3,versionB_stim.csv,ReadVersion.csv,Read,Read2,ROUGH,SILK,Study1,M,65,105,Study,User,-,,Study/JOL,"Study Phase2",1378,,,-1,-1,,,,1
61363ce02e6022a741d63a6e,7l4ho8p9pr,"Mediated Recall_Prolific",1,146,2023-02-06T00:47:45+00:00,2.5644950866699,3,versionB_stim.csv,ReadVersion.csv,Read,Read2,WAGE,MONEY,Study1,F,77,80,Study,User,-,,Study/JOL,"Study Phase2",772,,,-1,-1,,,,1
61363ce02e6022a741d63a6e,7l4ho8p9pr,"Mediated Recall_Prolific",1,147,2023-02-06T00:47:47+00:00,2.0596950054169,3,versionB_stim.csv,ReadVersion.csv,Read,Read2,BIRTHDAY,PIE,Study1,M,64,71,Study,User,-,,Study/JOL,"Study Phase2",494,,,-1,-1,,,,1
61363ce02e6022a741d63a6e,7l4ho8p9pr,"Mediated Recall_Prolific",1,148,2023-02-06T00:47:50+00:00,2.5248558521271,3,versionB_stim.csv,ReadVersion.csv,Read,Read2,ROOT,PLANT,Study1,F,80,89,Study,User,-,,Study/JOL,"Study Phase2",627,,,-1,-1,,,,1
61363ce02e6022a741d63a6e,7l4ho8p9pr,"Mediated Recall_Prolific",1,149,2023-02-06T00:47:52+00:00,2.4088151454926,3,versionB_stim.csv,ReadVersion.csv,Read,Read2,MULE,DONKEY,Study1,F,85,94,Study,User,-,,Study/JOL,"Study Phase2",626,,,-1,-1,,,,1
61363ce02e6022a741d63a6e,7l4ho8p9pr,"Mediated Recall_Prolific",1,150,2023-02-06T00:47:55+00:00,2.5113370418549,3,versionB_stim.csv,ReadVersion.csv,Read,Read2,LITTER,TRASH,Study1,F,76,98,Study,User,-,,Study/JOL,"Study Phase2",711,,,-1,-1,,,,1
61363ce02e6022a741d63a6e,7l4ho8p9pr,"Mediated Recall_Prolific",1,151,2023-02-06T00:47:57+00:00,2.1094508171082,3,versionB_stim.csv,ReadVersion.csv,Read,Read2,HYGIENE,CLEAN,Study1,F,83,77,Study,User,-,,Study/JOL,"Study Phase2",562,,,-1,-1,,,,1
61363ce02e6022a741d63a6e,7l4ho8p9pr,"Mediated Recall_Prolific",1,152,2023-02-06T00:48:00+00:00,2.8020050525665,3,versionB_stim.csv,ReadVersion.csv,Read,Read2,KEYS,ROD,Study1,U,100,68,Study,User,-,,Study/JOL,"Study Phase2",537,,,-1,-1,,,,1
61363ce02e6022a741d63a6e,7l4ho8p9pr,"Mediated Recall_Prolific",1,153,2023-02-06T00:48:03+00:00,3.1444120407104,3,versionB_stim.csv,ReadVersion.csv,Read,Read2,BAT,BOUNCE,Study1,M,67,75,Study,User,-,,Study/JOL,"Study Phase2",504,,,-1,-1,,,,1
61363ce02e6022a741d63a6e,7l4ho8p9pr,"Mediated Recall_Prolific",1,154,2023-02-06T00:48:05+00:00,2.6118729114532,3,versionB_stim.csv,ReadVersion.csv,Read,Read2,WAR,QUIET,Study1,M,63,83,Study,User,-,,Study/JOL,"Study Phase2",588,,,-1,-1,,,,1
61363ce02e6022a741d63a6e,7l4ho8p9pr,"Mediated Recall_Prolific",1,155,2023-02-06T00:48:08+00:00,2.7103362083435,3,versionB_stim.csv,ReadVersion.csv,Read,Read2,GIVE,STEAK,Study1,U,93,70,Study,User,-,,Study/JOL,"Study Phase2",746,,,-1,-1,,,,1
61363ce02e6022a741d63a6e,7l4ho8p9pr,"Mediated Recall_Prolific",1,156,2023-02-06T00:48:11+00:00,2.5189118385315,3,versionB_stim.csv,ReadVersion.csv,Read,Read2,CAKE,HAND,Study1,U,104,101,Study,User,-,,Study/JOL,"Study Phase2",617,,,-1,-1,,,,1
61363ce02e6022a741d63a6e,7l4ho8p9pr,"Mediated Recall_Prolific",1,157,2023-02-06T00:48:13+00:00,2.4100601673126,3,versionB_stim.csv,ReadVersion.csv,Read,Read2,AFFECTION,LOVE,Study1,F,86,65,Study,User,-,,Study/JOL,"Study Phase2",658,,,-1,-1,,,,1
61363ce02e6022a741d63a6e,7l4ho8p9pr,"Mediated Recall_Prolific",1,158,2023-02-06T00:48:21+00:00,7.6493668556213,3,versionB_stim.csv,ReadVersion.csv,Read,Read2,SPACE,JAM,BUFFER1,Buffer,60,60,Study,User,-,,Study/JOL,BUFFER2,5520,,,-1,-1,,,,0.519
61363ce02e6022a741d63a6e,7l4ho8p9pr,"Mediated Recall_Prolific",1,159,2023-02-06T00:48:24+00:00,3.110228061676,3,versionB_stim.csv,ReadVersion.csv,Read,Read2,GEESE,GOOSE,BUFFER2,Buffer,106,110,Study,User,-,,Study/JOL,BUFFER2,1340,,,-1,-1,,,,1
61363ce02e6022a741d63a6e,7l4ho8p9pr,"Mediated Recall_Prolific",1,160,2023-02-06T00:48:27+00:00,2.8475170135498,3,versionB_stim.csv,ReadVersion.csv,Read,Read2,SHRIMP,FISH,BUFFER4,Buffer,53,52,Study,User,-,,Study/JOL,BUFFER2,1166,,,-1,-1,,,,1
61363ce02e6022a741d63a6e,7l4ho8p9pr,"Mediated Recall_Prolific",1,161,2023-02-06T00:48:29+00:00,2.7240710258484,3,versionB_stim.csv,ReadVersion.csv,Read,Read2,THING,STUFF,BUFFER2,Buffer,110,109,Study,User,-,,Study/JOL,BUFFER2,782,,,-1,-1,,,,1
61363ce02e6022a741d63a6e,7l4ho8p9pr,"Mediated Recall_Prolific",1,162,2023-02-06T00:48:33+00:00,3.2678248882294,3,versionB_stim.csv,ReadVersion.csv,Read,Read2,MOON,SPACE,BUFFER2,Buffer,109,111,Study,User,-,,Study/JOL,BUFFER2,1333,,,-1,-1,,,,1
61363ce02e6022a741d63a6e,7l4ho8p9pr,"Mediated Recall_Prolific",1,163,2023-02-06T00:48:36+00:00,3.8063931465149,3,versionB_stim.csv,ReadVersion.csv,Read,Read2,,,,,,0,Instruct,User,-,"You have completed this section. Please press Enter.",Filler_Instruction,Instruct2,1682,,,-1,-1,,,,1
61363ce02e6022a741d63a6e,7l4ho8p9pr,"Mediated Recall_Prolific",1,164,2023-02-06T00:50:38+00:00,121.72320795059,3,versionB_stim.csv,ReadVersion.csv,Read,Read2,,,,,,0,FreeRecall,120,120,"Please list the 50 US states in alphabetical order. The task will automatically advance to the next screen after two minutes.",,Filler1,120006,"alabama Alaska Arizona arkansa California colorado",0,3976,33363,0,0,,0.29
61363ce02e6022a741d63a6e,7l4ho8p9pr,"Mediated Recall_Prolific",1,165,2023-02-06T00:51:06+00:00,27.454320907593,3,versionB_stim.csv,ReadVersion.csv,Read,Read2,,,,,,0,Instruct,-,10,"You will now be presented with the first word from each of the previously studied item pairs. Please type the missing word. If you do not know the word, you may guess or press Enter to skip forward to the next pair.",,Instruct3,25231,,,-1,-1,,,,0.5
61363ce02e6022a741d63a6e,7l4ho8p9pr,"Mediated Recall_Prolific",1,166,2023-02-06T00:51:10+00:00,4.4983201026917,3,versionB_stim.csv,ReadVersion.csv,Read,Read2,TUNA,FISH,Study1,F,90,86,Test,User,-,,Recall,Recall2,2626,FISH,100,2085,2400,1,1,,1
61363ce02e6022a741d63a6e,7l4ho8p9pr,"Mediated Recall_Prolific",1,167,2023-02-06T00:51:14+00:00,4.0942859649658,3,versionB_stim.csv,ReadVersion.csv,Read,Read2,SIP,DRINK,Study1,F,87,87,Test,User,-,,Recall,Recall2,2420,,0,-1,-1,0,0,,1
61363ce02e6022a741d63a6e,7l4ho8p9pr,"Mediated Recall_Prolific",1,168,2023-02-06T00:51:19+00:00,5.3771719932556,3,versionB_stim.csv,ReadVersion.csv,Read,Read2,ROOT,PLANT,Study1,F,80,89,Test,User,-,,Recall,Recall2,3586,PLANT,100,2086,3322,1,1,,1
61363ce02e6022a741d63a6e,7l4ho8p9pr,"Mediated Recall_Prolific",1,169,2023-02-06T00:51:24+00:00,4.2516129016876,3,versionB_stim.csv,ReadVersion.csv,Read,Read2,BAT,BOUNCE,Study1,M,67,75,Test,User,-,,Recall,Recall2,2700,BOUNCE,100,1853,2538,1,1,,1
61363ce02e6022a741d63a6e,7l4ho8p9pr,"Mediated Recall_Prolific",1,170,2023-02-06T00:51:26+00:00,2.6201460361481,3,versionB_stim.csv,ReadVersion.csv,Read,Read2,FUZZY,BANG,Study1,U,105,93,Test,User,-,,Recall,Recall2,1011,,0,-1,-1,0,0,,1
61363ce02e6022a741d63a6e,7l4ho8p9pr,"Mediated Recall_Prolific",1,171,2023-02-06T00:51:29+00:00,2.7771379947662,3,versionB_stim.csv,ReadVersion.csv,Read,Read2,NAP,SLEEP,Study1,F,84,99,Test,User,-,,Recall,Recall2,1128,,0,-1,-1,0,0,,1
61363ce02e6022a741d63a6e,7l4ho8p9pr,"Mediated Recall_Prolific",1,172,2023-02-06T00:51:34+00:00,5.2934491634369,3,versionB_stim.csv,ReadVersion.csv,Read,Read2,HYGIENE,CLEAN,Study1,F,83,77,Test,User,-,,Recall,Recall2,3639,CLEAN,100,3001,3459,1,1,,1
61363ce02e6022a741d63a6e,7l4ho8p9pr,"Mediated Recall_Prolific",1,173,2023-02-06T00:51:43+00:00,8.3832337856293,3,versionB_stim.csv,ReadVersion.csv,Read,Read2,MAZE,PHONE,Study1,U,97,66,Test,User,-,,Recall,Recall2,6599,,0,-1,-1,0,0,,0.364
61363ce02e6022a741d63a6e,7l4ho8p9pr,"Mediated Recall_Prolific",1,174,2023-02-06T00:51:56+00:00,12.887843132019,3,versionB_stim.csv,ReadVersion.csv,Read,Read2,TREE,SYRUP,Study1,M,66,78,Test,User,-,,Recall,Recall2,11044,PLANT,20,10434,10880,0,0,,0.582
61363ce02e6022a741d63a6e,7l4ho8p9pr,"Mediated Recall_Prolific",1,175,2023-02-06T00:52:33+00:00,37.69886803627,3,versionB_stim.csv,ReadVersion.csv,Read,Read2,LITTER,TRASH,Study1,F,76,98,Test,User,-,,Recall,Recall2,35724,TRASH,100,34989,35552,1,1,,0.09
61363ce02e6022a741d63a6e,7l4ho8p9pr,"Mediated Recall_Prolific",1,176,2023-02-06T00:52:37+00:00,3.2286629676819,3,versionB_stim.csv,ReadVersion.csv,Read,Read2,WEDDING,FINGER,Study1,M,72,82,Test,User,-,,Recall,Recall2,1436,,0,-1,-1,0,0,,1
61363ce02e6022a741d63a6e,7l4ho8p9pr,"Mediated Recall_Prolific",1,177,2023-02-06T00:52:40+00:00,3.0132260322571,3,versionB_stim.csv,ReadVersion.csv,Read,Read2,GIVE,STEAK,Study1,U,93,70,Test,User,-,,Recall,Recall2,1389,,0,-1,-1,0,0,,1
61363ce02e6022a741d63a6e,7l4ho8p9pr,"Mediated Recall_Prolific",1,178,2023-02-06T00:52:43+00:00,2.8687219619751,3,versionB_stim.csv,ReadVersion.csv,Read,Read2,SHELL,SHAKE,Study1,U,98,84,Test,User,-,,Recall,Recall2,1399,,0,-1,-1,0,0,,1
61363ce02e6022a741d63a6e,7l4ho8p9pr,"Mediated Recall_Prolific",1,179,2023-02-06T00:52:48+00:00,5.0071530342102,3,versionB_stim.csv,ReadVersion.csv,Read,Read2,TEMPERATURE,MORNING,Study1,U,103,79,Test,User,-,,Recall,Recall2,3481,HOT,20,2393,3341,0,0,,1
61363ce02e6022a741d63a6e,7l4ho8p9pr,"Mediated Recall_Prolific",1,180,2023-02-06T00:52:50+00:00,2.7725160121918,3,versionB_stim.csv,ReadVersion.csv,Read,Read2,CIRCLE,DANCE,Study1,M,68,92,Test,User,-,,Recall,Recall2,1318,,0,-1,-1,0,0,,1
61363ce02e6022a741d63a6e,7l4ho8p9pr,"Mediated Recall_Prolific",1,181,2023-02-06T00:52:53+00:00,3.1294589042664,3,versionB_stim.csv,ReadVersion.csv,Read,Read2,WAR,QUIET,Study1,M,63,83,Test,User,-,,Recall,Recall2,1429,,0,-1,-1,0,0,,1
61363ce02e6022a741d63a6e,7l4ho8p9pr,"Mediated Recall_Prolific",1,182,2023-02-06T00:52:56+00:00,3.0767230987549,3,versionB_stim.csv,ReadVersion.csv,Read,Read2,BEACH,BOX,Study1,M,62,85,Test,User,-,,Recall,Recall2,1513,,0,-1,-1,0,0,,1
61363ce02e6022a741d63a6e,7l4ho8p9pr,"Mediated Recall_Prolific",1,183,2023-02-06T00:52:59+00:00,2.8916268348694,3,versionB_stim.csv,ReadVersion.csv,Read,Read2,CRY,BOTTLE,Study1,M,71,72,Test,User,-,,Recall,Recall2,1311,,0,-1,-1,0,0,,1
61363ce02e6022a741d63a6e,7l4ho8p9pr,"Mediated Recall_Prolific",1,184,2023-02-06T00:53:03+00:00,3.4729430675507,3,versionB_stim.csv,ReadVersion.csv,Read,Read2,BIRTHDAY,PIE,Study1,M,64,71,Test,User,-,,Recall,Recall2,1785,,0,-1,-1,0,0,,1
61363ce02e6022a741d63a6e,7l4ho8p9pr,"Mediated Recall_Prolific",1,185,2023-02-06T00:53:06+00:00,3.413211107254,3,versionB_stim.csv,ReadVersion.csv,Read,Read2,VEHICLE,CHARM,Study1,U,95,62,Test,User,-,,Recall,Recall2,1157,,0,-1,-1,0,0,,1
61363ce02e6022a741d63a6e,7l4ho8p9pr,"Mediated Recall_Prolific",1,186,2023-02-06T00:53:10+00:00,3.3981750011444,3,versionB_stim.csv,ReadVersion.csv,Read,Read2,WORD,SENTENCE,Study1,F,82,96,Test,User,-,,Recall,Recall2,1663,,0,-1,-1,0,0,,1
61363ce02e6022a741d63a6e,7l4ho8p9pr,"Mediated Recall_Prolific",1,187,2023-02-06T00:53:13+00:00,3.7796709537506,3,versionB_stim.csv,ReadVersion.csv,Read,Read2,SIGN,TICK,Study1,U,102,69,Test,User,-,,Recall,Recall2,1979,,0,-1,-1,0,0,,1
61363ce02e6022a741d63a6e,7l4ho8p9pr,"Mediated Recall_Prolific",1,188,2023-02-06T00:53:17+00:00,3.1563708782196,3,versionB_stim.csv,ReadVersion.csv,Read,Read2,LISTEN,FICTION,Study1,U,99,74,Test,User,-,,Recall,Recall2,1346,,0,-1,-1,0,0,,1
61363ce02e6022a741d63a6e,7l4ho8p9pr,"Mediated Recall_Prolific",1,189,2023-02-06T00:53:19+00:00,2.6703209877014,3,versionB_stim.csv,ReadVersion.csv,Read,Read2,ROUGH,SILK,Study1,M,65,105,Test,User,-,,Recall,Recall2,921,,0,-1,-1,0,0,,1
61363ce02e6022a741d63a6e,7l4ho8p9pr,"Mediated Recall_Prolific",1,190,2023-02-06T00:53:22+00:00,2.9253511428833,3,versionB_stim.csv,ReadVersion.csv,Read,Read2,AFFECTION,LOVE,Study1,F,86,65,Test,User,-,,Recall,Recall2,1322,,0,-1,-1,0,0,,1
61363ce02e6022a741d63a6e,7l4ho8p9pr,"Mediated Recall_Prolific",1,191,2023-02-06T00:53:26+00:00,3.7785968780518,3,versionB_stim.csv,ReadVersion.csv,Read,Read2,MULE,DONKEY,Study1,F,85,94,Test,User,-,,Recall,Recall2,2096,,0,-1,-1,0,0,,1
61363ce02e6022a741d63a6e,7l4ho8p9pr,"Mediated Recall_Prolific",1,192,2023-02-06T00:53:28+00:00,2.3846380710602,3,versionB_stim.csv,ReadVersion.csv,Read,Read2,SOON,BELT,Study1,U,101,91,Test,User,-,,Recall,Recall2,738,,0,-1,-1,0,0,,1
61363ce02e6022a741d63a6e,7l4ho8p9pr,"Mediated Recall_Prolific",1,193,2023-02-06T00:53:33+00:00,4.9352459907532,3,versionB_stim.csv,ReadVersion.csv,Read,Read2,MULE,DONKEY,Study1,F,79,103,Test,User,-,,Recall,Recall2,3135,HORSE,36.363636363636,2521,3042,0,0,,1
61363ce02e6022a741d63a6e,7l4ho8p9pr,"Mediated Recall_Prolific",1,194,2023-02-06T00:53:36+00:00,2.8659000396729,3,versionB_stim.csv,ReadVersion.csv,Read,Read2,MIRROR,MAROON,Study1,U,91,88,Test,User,-,,Recall,Recall2,1428,,0,-1,-1,0,0,,1
61363ce02e6022a741d63a6e,7l4ho8p9pr,"Mediated Recall_Prolific",1,195,2023-02-06T00:53:40+00:00,4.3312139511108,3,versionB_stim.csv,ReadVersion.csv,Read,Read2,CREDIT,CARD,Study1,F,88,102,Test,User,-,,Recall,Recall2,2606,CARD,100,1835,2496,1,1,,1
61363ce02e6022a741d63a6e,7l4ho8p9pr,"Mediated Recall_Prolific",1,196,2023-02-06T00:53:43+00:00,2.7679460048676,3,versionB_stim.csv,ReadVersion.csv,Read,Read2,CEILING,CARPET,Study1,M,70,67,Test,User,-,,Recall,Recall2,1164,,0,-1,-1,0,0,,1
61363ce02e6022a741d63a6e,7l4ho8p9pr,"Mediated Recall_Prolific",1,197,2023-02-06T00:53:49+00:00,5.3135769367218,3,versionB_stim.csv,ReadVersion.csv,Read,Read2,SWAN,BIRD,Study1,F,81,95,Test,User,-,,Recall,Recall2,3459,BIRD,100,2856,3315,1,1,,1
61363ce02e6022a741d63a6e,7l4ho8p9pr,"Mediated Recall_Prolific",1,198,2023-02-06T00:53:52+00:00,2.9966080188751,3,versionB_stim.csv,ReadVersion.csv,Read,Read2,WAGE,MONEY,Study1,F,77,80,Test,User,-,,Recall,Recall2,1421,,0,-1,-1,0,0,,1
61363ce02e6022a741d63a6e,7l4ho8p9pr,"Mediated Recall_Prolific",1,199,2023-02-06T00:53:55+00:00,3.1505210399628,3,versionB_stim.csv,ReadVersion.csv,Read,Read2,HARD,COTTON,Study1,M,75,97,Test,User,-,,Recall,Recall2,1406,,0,-1,-1,0,0,,1
61363ce02e6022a741d63a6e,7l4ho8p9pr,"Mediated Recall_Prolific",1,200,2023-02-06T00:53:58+00:00,2.9769899845123,3,versionB_stim.csv,ReadVersion.csv,Read,Read2,DAY,DARK,Study1,M,73,104,Test,User,-,,Recall,Recall2,1319,,0,-1,-1,0,0,,1
61363ce02e6022a741d63a6e,7l4ho8p9pr,"Mediated Recall_Prolific",1,201,2023-02-06T00:54:01+00:00,3.0327320098877,3,versionB_stim.csv,ReadVersion.csv,Read,Read2,STRETCH,CLOTH,Study1,U,92,63,Test,User,-,,Recall,Recall2,1276,,0,-1,-1,0,0,,1
61363ce02e6022a741d63a6e,7l4ho8p9pr,"Mediated Recall_Prolific",1,202,2023-02-06T00:54:05+00:00,4.1811380386353,3,versionB_stim.csv,ReadVersion.csv,Read,Read2,CAKE,HAND,Study1,U,104,101,Test,User,-,,Recall,Recall2,1667,,0,-1,-1,0,0,,1
61363ce02e6022a741d63a6e,7l4ho8p9pr,"Mediated Recall_Prolific",1,203,2023-02-06T00:54:10+00:00,5.0059509277344,3,versionB_stim.csv,ReadVersion.csv,Read,Read2,ORCHID,FLOWER,Study1,F,89,76,Test,User,-,,Recall,Recall2,2795,TREE,20,2467,2520,0,0,,1
61363ce02e6022a741d63a6e,7l4ho8p9pr,"Mediated Recall_Prolific",1,204,2023-02-06T00:54:14+00:00,3.7802059650421,3,versionB_stim.csv,ReadVersion.csv,Read,Read2,MEAT,KEYS,Study1,U,96,90,Test,User,-,,Recall,Recall2,1182,,0,-1,-1,0,0,,1
61363ce02e6022a741d63a6e,7l4ho8p9pr,"Mediated Recall_Prolific",1,205,2023-02-06T00:54:17+00:00,3.0625460147858,3,versionB_stim.csv,ReadVersion.csv,Read,Read2,KEYS,ROD,Study1,U,100,68,Test,User,-,,Recall,Recall2,1127,,0,-1,-1,0,0,,1
61363ce02e6022a741d63a6e,7l4ho8p9pr,"Mediated Recall_Prolific",1,206,2023-02-06T00:54:22+00:00,5.0394241809845,3,versionB_stim.csv,ReadVersion.csv,Read,Read2,LION,STRIPES,Study1,M,61,73,Test,User,-,,Recall,Recall2,2985,,0,-1,-1,0,0,,1
61363ce02e6022a741d63a6e,7l4ho8p9pr,"Mediated Recall_Prolific",1,207,2023-02-06T00:54:27+00:00,4.9577219486237,3,versionB_stim.csv,ReadVersion.csv,Read,Read2,SCALP,HEAD,Study1,F,78,81,Test,User,-,,Recall,Recall2,2858,HEAD,100,2385,2769,1,1,,1
61363ce02e6022a741d63a6e,7l4ho8p9pr,"Mediated Recall_Prolific",1,208,2023-02-06T00:54:32+00:00,5.2837958335876,3,versionB_stim.csv,ReadVersion.csv,Read,Read2,HORSE,WHEEL,Study1,M,69,100,Test,User,-,,Recall,Recall2,3644,MULE,22.222222222222,2959,3523,0,0,,1
61363ce02e6022a741d63a6e,7l4ho8p9pr,"Mediated Recall_Prolific",1,209,2023-02-06T00:54:35+00:00,3.3417131900787,3,versionB_stim.csv,ReadVersion.csv,Read,Read2,CRACKLE,ELECTION,Study1,U,94,106,Test,User,-,,Recall,Recall2,1597,,0,-1,-1,0,0,,1
61363ce02e6022a741d63a6e,7l4ho8p9pr,"Mediated Recall_Prolific",1,210,2023-02-06T00:54:39+00:00,3.8627619743347,3,versionB_stim.csv,ReadVersion.csv,Read,Read2,TOOTH,HAIR,Study1,M,74,64,Test,User,-,,Recall,Recall2,2107,,0,-1,-1,0,0,,1
61363ce02e6022a741d63a6e,7l4ho8p9pr,"Mediated Recall_Prolific",1,211,2023-02-06T00:54:42+00:00,3.1963748931885,3,versionB_stim.csv,ReadVersion.csv,Read,Read2,,,,,,0,Instruct,User,-,"You have completed this section. Please press Enter.",,Instruct7,1334,,,-1,-1,,,,1
61363ce02e6022a741d63a6e,7l4ho8p9pr,"Mediated Recall_Prolific",1,212,2023-02-06T00:54:46+00:00,3.9569640159607,3,versionB_stim.csv,ReadVersion.csv,Read,Read2,,,,,,0,Instruct,User,-,"The following screen will ask you a few questions abour your experience today. You must complete these questions to receive credit.",,Instruct8,2182,,,-1,-1,,,,1
