Username,ID,ExperimentName,Session,Trial,Date,TimeDif,"Condition Number","Stimuli File","Order File","Condition Description","Condition Notes",Stimuli*Cue,Stimuli*Answer,Stimuli*Shuffle,"Stimuli*Stimuli Notes",Stimuli*Value,Procedure*Item,"Procedure*Trial Type","Procedure*Max Time","Procedure*Min Time",Procedure*Text,"Procedure*Procedure Notes",Procedure*Shuffle,Response*RT,Response*Response,Response*Accuracy,Response*RTfirst,Response*RTlast,Response*strictAcc,Response*lenientAcc,Response*focus,Response*Focus
55d35447da14d7000e95318f,zjiexcl9sj,"Mediated Recall_Prolific",1,1,2023-03-04T18:22:54+00:00,6.6567878723145,3,versionB_stim.csv,ReadVersion.csv,Read,Read2,,,,,,0,Instruct,-,5,"In this section, you will be presented with a series of word pairs. Please study each word pair! Your memory will be tested!",Initial_Instruct,Instruct1,6406,,,-1,-1,,,,1
55d35447da14d7000e95318f,zjiexcl9sj,"Mediated Recall_Prolific",1,2,2023-03-04T18:22:55+00:00,1.5063111782074,3,versionB_stim.csv,ReadVersion.csv,Read,Read2,,,,,,0,Instruct,User,-,"You will now begin. Press Enter when you are ready to begin.",,Instruct16,1181,,,-1,-1,,,,0
55d35447da14d7000e95318f,zjiexcl9sj,"Mediated Recall_Prolific",1,3,2023-03-04T18:22:58+00:00,3.0955469608307,3,versionB_stim.csv,ReadVersion.csv,Read,Read2,MONTH,YEAR,BUFFER3,Buffer,2,3,Study,User,-,,Study/JOL,BUFFER,2909,,,-1,-1,,,,0.067
55d35447da14d7000e95318f,zjiexcl9sj,"Mediated Recall_Prolific",1,4,2023-03-04T18:23:02+00:00,3.8217530250549,3,versionB_stim.csv,ReadVersion.csv,Read,Read2,TOOL,SHED,BUFFER3,Buffer,3,6,Study,User,-,,Study/JOL,BUFFER,3629,,,-1,-1,,,,0.158
55d35447da14d7000e95318f,zjiexcl9sj,"Mediated Recall_Prolific",1,5,2023-03-04T18:23:06+00:00,3.8646719455719,3,versionB_stim.csv,ReadVersion.csv,Read,Read2,DAYS,WEAKS,BUFFER3,Buffer,1,5,Study,User,-,,Study/JOL,BUFFER,3683,,,-1,-1,,,,0.105
55d35447da14d7000e95318f,zjiexcl9sj,"Mediated Recall_Prolific",1,6,2023-03-04T18:23:10+00:00,3.7745869159698,3,versionB_stim.csv,ReadVersion.csv,Read,Read2,SPRING,MARCH,BUFFER3,Buffer,4,4,Study,User,-,,Study/JOL,BUFFER,3584,,,-1,-1,,,,0.056
55d35447da14d7000e95318f,zjiexcl9sj,"Mediated Recall_Prolific",1,7,2023-03-04T18:23:14+00:00,4.4464960098267,3,versionB_stim.csv,ReadVersion.csv,Read,Read2,OCTOBER,SPOOKY,BUFFER3,Buffer,5,2,Study,User,-,,Study/JOL,BUFFER,4259,,,-1,-1,,,,0.136
55d35447da14d7000e95318f,zjiexcl9sj,"Mediated Recall_Prolific",1,8,2023-03-04T18:23:21+00:00,6.6436641216278,3,versionB_stim.csv,ReadVersion.csv,Read,Read2,SCHOOL,STOP,Study2,M,7,9,Study,User,-,,Study/JOL,"Study Phase",6329,,,-1,-1,,,,0.281
55d35447da14d7000e95318f,zjiexcl9sj,"Mediated Recall_Prolific",1,9,2023-03-04T18:23:24+00:00,3.6109578609467,3,versionB_stim.csv,ReadVersion.csv,Read,Read2,WASP,BUG,Study2,F,34,13,Study,User,-,,Study/JOL,"Study Phase",3421,,,-1,-1,,,,0.111
55d35447da14d7000e95318f,zjiexcl9sj,"Mediated Recall_Prolific",1,10,2023-03-04T18:23:28+00:00,3.4222671985626,3,versionB_stim.csv,ReadVersion.csv,Read,Read2,CHISEL,HAMMER,Study2,F,23,46,Study,User,-,,Study/JOL,"Study Phase",3207,,,-1,-1,,,,0.125
55d35447da14d7000e95318f,zjiexcl9sj,"Mediated Recall_Prolific",1,11,2023-03-04T18:23:31+00:00,3.1934008598328,3,versionB_stim.csv,ReadVersion.csv,Read,Read2,VALLEY,PEAK,Study2,M,18,38,Study,User,-,,Study/JOL,"Study Phase",2992,,,-1,-1,,,,0.133
55d35447da14d7000e95318f,zjiexcl9sj,"Mediated Recall_Prolific",1,12,2023-03-04T18:23:40+00:00,9.370698928833,3,versionB_stim.csv,ReadVersion.csv,Read,Read2,ART,WOLF,Study2,U,38,35,Study,User,-,,Study/JOL,"Study Phase",9051,,,-1,-1,,,,0.217
55d35447da14d7000e95318f,zjiexcl9sj,"Mediated Recall_Prolific",1,13,2023-03-04T18:23:45+00:00,4.8196411132812,3,versionB_stim.csv,ReadVersion.csv,Read,Read2,LEAGUE,BASEBALL,Study2,F,29,24,Study,User,-,,Study/JOL,"Study Phase",4472,,,-1,-1,,,,0.217
55d35447da14d7000e95318f,zjiexcl9sj,"Mediated Recall_Prolific",1,14,2023-03-04T18:23:50+00:00,4.4294760227203,3,versionB_stim.csv,ReadVersion.csv,Read,Read2,BOTH,OUNCE,Study2,U,47,50,Study,User,-,,Study/JOL,"Study Phase",4245,,,-1,-1,,,,0.364
55d35447da14d7000e95318f,zjiexcl9sj,"Mediated Recall_Prolific",1,15,2023-03-04T18:23:53+00:00,3.1485269069672,3,versionB_stim.csv,ReadVersion.csv,Read,Read2,CASH,LEG,Study2,U,50,20,Study,User,-,,Study/JOL,"Study Phase",2948,,,-1,-1,,,,0.133
55d35447da14d7000e95318f,zjiexcl9sj,"Mediated Recall_Prolific",1,16,2023-03-04T18:23:57+00:00,4.2657041549683,3,versionB_stim.csv,ReadVersion.csv,Read,Read2,ATTIRE,CLOTHES,Study2,F,24,40,Study,User,-,,Study/JOL,"Study Phase",3867,,,-1,-1,,,,0.15
55d35447da14d7000e95318f,zjiexcl9sj,"Mediated Recall_Prolific",1,17,2023-03-04T18:24:01+00:00,4.5300710201263,3,versionB_stim.csv,ReadVersion.csv,Read,Read2,MIRROR,CHILDREN,Study2,U,49,31,Study,User,-,,Study/JOL,"Study Phase",4339,,,-1,-1,,,,0.273
55d35447da14d7000e95318f,zjiexcl9sj,"Mediated Recall_Prolific",1,18,2023-03-04T18:24:06+00:00,4.4413578510284,3,versionB_stim.csv,ReadVersion.csv,Read,Read2,HEAVY,FEATHER,Study2,M,13,47,Study,User,-,,Study/JOL,"Study Phase",4257,,,-1,-1,,,,0.227
55d35447da14d7000e95318f,zjiexcl9sj,"Mediated Recall_Prolific",1,19,2023-03-04T18:24:10+00:00,4.1490299701691,3,versionB_stim.csv,ReadVersion.csv,Read,Read2,NURSE,LAWYER,Study2,M,11,51,Study,User,-,,Study/JOL,"Study Phase",3963,,,-1,-1,,,,0.1
55d35447da14d7000e95318f,zjiexcl9sj,"Mediated Recall_Prolific",1,20,2023-03-04T18:24:14+00:00,3.4373240470886,3,versionB_stim.csv,ReadVersion.csv,Read,Read2,SOAP,DRINK,Study2,M,12,32,Study,User,-,,Study/JOL,"Study Phase",3223,,,-1,-1,,,,0.125
55d35447da14d7000e95318f,zjiexcl9sj,"Mediated Recall_Prolific",1,21,2023-03-04T18:24:17+00:00,3.6962559223175,3,versionB_stim.csv,ReadVersion.csv,Read,Read2,INCENSE,SMELL,Study2,F,28,23,Study,User,-,,Study/JOL,"Study Phase",3511,,,-1,-1,,,,0.111
55d35447da14d7000e95318f,zjiexcl9sj,"Mediated Recall_Prolific",1,22,2023-03-04T18:24:22+00:00,4.305272102356,3,versionB_stim.csv,ReadVersion.csv,Read,Read2,LEASE,TOIL,Study2,U,46,17,Study,User,-,,Study/JOL,"Study Phase",4118,,,-1,-1,,,,0.19
55d35447da14d7000e95318f,zjiexcl9sj,"Mediated Recall_Prolific",1,23,2023-03-04T18:24:26+00:00,4.0981659889221,3,versionB_stim.csv,ReadVersion.csv,Read,Read2,RAKE,SEED,Study2,M,14,10,Study,User,-,,Study/JOL,"Study Phase",3859,,,-1,-1,,,,0.25
55d35447da14d7000e95318f,zjiexcl9sj,"Mediated Recall_Prolific",1,24,2023-03-04T18:24:29+00:00,3.5823030471802,3,versionB_stim.csv,ReadVersion.csv,Read,Read2,TRAP,CAVE,Study2,M,15,26,Study,User,-,,Study/JOL,"Study Phase",3382,,,-1,-1,,,,0.118
55d35447da14d7000e95318f,zjiexcl9sj,"Mediated Recall_Prolific",1,25,2023-03-04T18:24:33+00:00,3.7501409053802,3,versionB_stim.csv,ReadVersion.csv,Read,Read2,ARTERY,BRONZE,Study2,U,48,27,Study,User,-,,Study/JOL,"Study Phase",3551,,,-1,-1,,,,0.111
55d35447da14d7000e95318f,zjiexcl9sj,"Mediated Recall_Prolific",1,26,2023-03-04T18:24:36+00:00,3.4620540142059,3,versionB_stim.csv,ReadVersion.csv,Read,Read2,BLAZE,FIRE,Study2,F,26,15,Study,User,-,,Study/JOL,"Study Phase",3271,,,-1,-1,,,,0.176
55d35447da14d7000e95318f,zjiexcl9sj,"Mediated Recall_Prolific",1,27,2023-03-04T18:24:40+00:00,3.764662027359,3,versionB_stim.csv,ReadVersion.csv,Read,Read2,PUSH,CLUTTER,Study2,U,41,49,Study,User,-,,Study/JOL,"Study Phase",3534,,,-1,-1,,,,0.111
55d35447da14d7000e95318f,zjiexcl9sj,"Mediated Recall_Prolific",1,28,2023-03-04T18:24:43+00:00,2.9689519405365,3,versionB_stim.csv,ReadVersion.csv,Read,Read2,SICK,HIDE,Study2,U,45,29,Study,User,-,,Study/JOL,"Study Phase",2760,,,-1,-1,,,,0.143
55d35447da14d7000e95318f,zjiexcl9sj,"Mediated Recall_Prolific",1,29,2023-03-04T18:24:46+00:00,3.0487070083618,3,versionB_stim.csv,ReadVersion.csv,Read,Read2,CHERRY,RED,Study2,F,25,7,Study,User,-,,Study/JOL,"Study Phase",2856,,,-1,-1,,,,0.133
55d35447da14d7000e95318f,zjiexcl9sj,"Mediated Recall_Prolific",1,30,2023-03-04T18:24:50+00:00,3.4152290821075,3,versionB_stim.csv,ReadVersion.csv,Read,Read2,OVEN,BASKET,Study2,M,16,21,Study,User,-,,Study/JOL,"Study Phase",3177,,,-1,-1,,,,0.125
55d35447da14d7000e95318f,zjiexcl9sj,"Mediated Recall_Prolific",1,31,2023-03-04T18:24:53+00:00,3.2185468673706,3,versionB_stim.csv,ReadVersion.csv,Read,Read2,SUMMER,SNOW,Study2,M,6,33,Study,User,-,,Study/JOL,"Study Phase",3015,,,-1,-1,,,,0.188
55d35447da14d7000e95318f,zjiexcl9sj,"Mediated Recall_Prolific",1,32,2023-03-04T18:24:56+00:00,3.2765531539917,3,versionB_stim.csv,ReadVersion.csv,Read,Read2,CHILL,COLD,Study2,F,32,36,Study,User,-,,Study/JOL,"Study Phase",3059,,,-1,-1,,,,0.188
55d35447da14d7000e95318f,zjiexcl9sj,"Mediated Recall_Prolific",1,33,2023-03-04T18:25:00+00:00,3.6732559204102,3,versionB_stim.csv,ReadVersion.csv,Read,Read2,DIETARY,SACK,Study2,U,42,8,Study,User,-,,Study/JOL,"Study Phase",3482,,,-1,-1,,,,0.167
55d35447da14d7000e95318f,zjiexcl9sj,"Mediated Recall_Prolific",1,34,2023-03-04T18:25:03+00:00,3.497447013855,3,versionB_stim.csv,ReadVersion.csv,Read,Read2,SUGAR,RIDDLE,Study2,U,40,34,Study,User,-,,Study/JOL,"Study Phase",3304,,,-1,-1,,,,0.118
55d35447da14d7000e95318f,zjiexcl9sj,"Mediated Recall_Prolific",1,35,2023-03-04T18:25:07+00:00,3.3282709121704,3,versionB_stim.csv,ReadVersion.csv,Read,Read2,BRIDGE,WATER,Study2,F,35,41,Study,User,-,,Study/JOL,"Study Phase",3106,,,-1,-1,,,,0.125
55d35447da14d7000e95318f,zjiexcl9sj,"Mediated Recall_Prolific",1,36,2023-03-04T18:25:12+00:00,4.9430360794067,3,versionB_stim.csv,ReadVersion.csv,Read,Read2,STRONG,ACCIDENT,Study2,U,39,48,Study,User,-,,Study/JOL,"Study Phase",4746,,,-1,-1,,,,0.083
55d35447da14d7000e95318f,zjiexcl9sj,"Mediated Recall_Prolific",1,37,2023-03-04T18:25:15+00:00,3.1653590202332,3,versionB_stim.csv,ReadVersion.csv,Read,Read2,HERD,COW,Study2,F,33,18,Study,User,-,,Study/JOL,"Study Phase",2952,,,-1,-1,,,,0.267
55d35447da14d7000e95318f,zjiexcl9sj,"Mediated Recall_Prolific",1,38,2023-03-04T18:25:20+00:00,5.2658069133759,3,versionB_stim.csv,ReadVersion.csv,Read,Read2,BENCH,HORN,Study2,U,43,44,Study,User,-,,Study/JOL,"Study Phase",4929,,,-1,-1,,,,0.08
55d35447da14d7000e95318f,zjiexcl9sj,"Mediated Recall_Prolific",1,39,2023-03-04T18:25:23+00:00,3.4758520126343,3,versionB_stim.csv,ReadVersion.csv,Read,Read2,RAZOR,MUSCLE,Study2,M,20,37,Study,User,-,,Study/JOL,"Study Phase",3291,,,-1,-1,,,,0.647
55d35447da14d7000e95318f,zjiexcl9sj,"Mediated Recall_Prolific",1,40,2023-03-04T18:25:28+00:00,4.6624410152435,3,versionB_stim.csv,ReadVersion.csv,Read,Read2,HORNET,STING,Study2,F,30,30,Study,User,-,,Study/JOL,"Study Phase",4460,,,-1,-1,,,,0.739
55d35447da14d7000e95318f,zjiexcl9sj,"Mediated Recall_Prolific",1,41,2023-03-04T18:25:31+00:00,2.970587015152,3,versionB_stim.csv,ReadVersion.csv,Read,Read2,HAPPY,CAR,Study2,U,37,39,Study,User,-,,Study/JOL,"Study Phase",2788,,,-1,-1,,,,0.643
55d35447da14d7000e95318f,zjiexcl9sj,"Mediated Recall_Prolific",1,42,2023-03-04T18:25:34+00:00,3.0377621650696,3,versionB_stim.csv,ReadVersion.csv,Read,Read2,CACTUS,PLANT,Study2,F,21,12,Study,User,-,,Study/JOL,"Study Phase",2852,,,-1,-1,,,,0.667
55d35447da14d7000e95318f,zjiexcl9sj,"Mediated Recall_Prolific",1,43,2023-03-04T18:25:37+00:00,3.0253119468689,3,versionB_stim.csv,ReadVersion.csv,Read,Read2,FEUD,FIGHT,Study2,F,31,14,Study,User,-,,Study/JOL,"Study Phase",2842,,,-1,-1,,,,0.667
55d35447da14d7000e95318f,zjiexcl9sj,"Mediated Recall_Prolific",1,44,2023-03-04T18:25:40+00:00,2.68408203125,3,versionB_stim.csv,ReadVersion.csv,Read,Read2,EYES,SMELL,Study2,M,10,25,Study,User,-,,Study/JOL,"Study Phase",2488,,,-1,-1,,,,0.692
55d35447da14d7000e95318f,zjiexcl9sj,"Mediated Recall_Prolific",1,45,2023-03-04T18:25:43+00:00,3.0406978130341,3,versionB_stim.csv,ReadVersion.csv,Read,Read2,KING,VASE,Study2,U,36,19,Study,User,-,,Study/JOL,"Study Phase",2853,,,-1,-1,,,,0.733
55d35447da14d7000e95318f,zjiexcl9sj,"Mediated Recall_Prolific",1,46,2023-03-04T18:25:47+00:00,3.6490521430969,3,versionB_stim.csv,ReadVersion.csv,Read,Read2,CHOP,CUT,Study2,F,22,28,Study,User,-,,Study/JOL,"Study Phase",3324,,,-1,-1,,,,0.471
55d35447da14d7000e95318f,zjiexcl9sj,"Mediated Recall_Prolific",1,47,2023-03-04T18:25:50+00:00,3.3502449989319,3,versionB_stim.csv,ReadVersion.csv,Read,Read2,REALITY,ISLAND,Study2,M,9,43,Study,User,-,,Study/JOL,"Study Phase",3162,,,-1,-1,,,,0.688
55d35447da14d7000e95318f,zjiexcl9sj,"Mediated Recall_Prolific",1,48,2023-03-04T18:25:53+00:00,3.1178140640259,3,versionB_stim.csv,ReadVersion.csv,Read,Read2,GRILL,THIGH,Study2,M,17,22,Study,User,-,,Study/JOL,"Study Phase",2907,,,-1,-1,,,,0.667
55d35447da14d7000e95318f,zjiexcl9sj,"Mediated Recall_Prolific",1,49,2023-03-04T18:25:56+00:00,3.1483728885651,3,versionB_stim.csv,ReadVersion.csv,Read,Read2,PANTS,COLLAR,Study2,M,8,42,Study,User,-,,Study/JOL,"Study Phase",2932,,,-1,-1,,,,0.667
55d35447da14d7000e95318f,zjiexcl9sj,"Mediated Recall_Prolific",1,50,2023-03-04T18:25:59+00:00,3.098249912262,3,versionB_stim.csv,ReadVersion.csv,Read,Read2,WINDOW,KNOB,Study2,M,19,45,Study,User,-,,Study/JOL,"Study Phase",2904,,,-1,-1,,,,0.667
55d35447da14d7000e95318f,zjiexcl9sj,"Mediated Recall_Prolific",1,51,2023-03-04T18:26:02+00:00,3.2020781040192,3,versionB_stim.csv,ReadVersion.csv,Read,Read2,DEATH,BUSINESS,Study2,U,44,11,Study,User,-,,Study/JOL,"Study Phase",3015,,,-1,-1,,,,0.8
55d35447da14d7000e95318f,zjiexcl9sj,"Mediated Recall_Prolific",1,52,2023-03-04T18:26:05+00:00,3.0204379558563,3,versionB_stim.csv,ReadVersion.csv,Read,Read2,DOCUMENT,PAPER,Study2,F,27,16,Study,User,-,,Study/JOL,"Study Phase",2823,,,-1,-1,,,,0.667
55d35447da14d7000e95318f,zjiexcl9sj,"Mediated Recall_Prolific",1,53,2023-03-04T18:26:12+00:00,6.575875043869,3,versionB_stim.csv,ReadVersion.csv,Read,Read2,MALT,CHOCOLATE,BUFFER2,Buffer,108,107,Study,User,-,,Study/JOL,BUFFER2,6258,,,-1,-1,,,,0.844
55d35447da14d7000e95318f,zjiexcl9sj,"Mediated Recall_Prolific",1,54,2023-03-04T18:26:19+00:00,7.0539128780365,3,versionB_stim.csv,ReadVersion.csv,Read,Read2,PITCHER,CATCHER,BUFFER1,Buffer,57,57,Study,User,-,,Study/JOL,BUFFER2,6740,,,-1,-1,,,,0.471
55d35447da14d7000e95318f,zjiexcl9sj,"Mediated Recall_Prolific",1,55,2023-03-04T18:26:22+00:00,2.8259332180023,3,versionB_stim.csv,ReadVersion.csv,Read,Read2,THING,STUFF,BUFFER2,Buffer,110,109,Study,User,-,,Study/JOL,BUFFER2,2636,,,-1,-1,,,,0.643
55d35447da14d7000e95318f,zjiexcl9sj,"Mediated Recall_Prolific",1,56,2023-03-04T18:26:26+00:00,4.0626459121704,3,versionB_stim.csv,ReadVersion.csv,Read,Read2,NOODLE,STRING,BUFFER4,Buffer,52,52,Study,User,-,,Study/JOL,BUFFER2,3872,,,-1,-1,,,,0.8
55d35447da14d7000e95318f,zjiexcl9sj,"Mediated Recall_Prolific",1,57,2023-03-04T18:26:29+00:00,2.7427358627319,3,versionB_stim.csv,ReadVersion.csv,Read,Read2,PEANUT,BUTTER,BUFFER1,Buffer,58,61,Study,User,-,,Study/JOL,BUFFER2,2551,,,-1,-1,,,,0.615
55d35447da14d7000e95318f,zjiexcl9sj,"Mediated Recall_Prolific",1,58,2023-03-04T18:26:30+00:00,1.5929460525513,3,versionB_stim.csv,ReadVersion.csv,Read,Read2,,,,,,0,Instruct,User,-,"You have completed this section. Please press Enter.",Filler_Instruction,Instruct2,1385,,,-1,-1,,,,1
55d35447da14d7000e95318f,zjiexcl9sj,"Mediated Recall_Prolific",1,59,2023-03-04T18:28:31+00:00,120.33309316635,3,versionB_stim.csv,ReadVersion.csv,Read,Read2,,,,,,0,FreeRecall,120,120,"Please list the 50 US states in alphabetical order. The task will automatically advance to the next screen after two minutes.",,Filler1,120002,"Alabama Alaska Arizona Arkansas California Colorado Connecticut Delaware Florida",0,17478,118485,0,0,,0.831
55d35447da14d7000e95318f,zjiexcl9sj,"Mediated Recall_Prolific",1,60,2023-03-04T18:28:43+00:00,12.504530906677,3,versionB_stim.csv,ReadVersion.csv,Read,Read2,,,,,,0,Instruct,-,10,"You will now be presented with the first word from each of the previously studied item pairs. Please type the missing word. If you do not know the word, you may guess or press Enter to skip forward to the next pair.",,Instruct3,12164,,,-1,-1,,,,0.787
55d35447da14d7000e95318f,zjiexcl9sj,"Mediated Recall_Prolific",1,61,2023-03-04T18:28:48+00:00,4.5384840965271,3,versionB_stim.csv,ReadVersion.csv,Read,Read2,WINDOW,KNOB,Study2,M,19,45,Test,User,-,,Recall,Recall1,4340,PANE,25,1956,3098,0,0,,1
55d35447da14d7000e95318f,zjiexcl9sj,"Mediated Recall_Prolific",1,62,2023-03-04T18:28:54+00:00,6.199404001236,3,versionB_stim.csv,ReadVersion.csv,Read,Read2,DOCUMENT,PAPER,Study2,F,27,16,Test,User,-,,Recall,Recall1,5872,PAPER,100,3436,5674,1,1,,1
55d35447da14d7000e95318f,zjiexcl9sj,"Mediated Recall_Prolific",1,63,2023-03-04T18:28:57+00:00,2.9247629642487,3,versionB_stim.csv,ReadVersion.csv,Read,Read2,REALITY,ISLAND,Study2,M,9,43,Test,User,-,,Recall,Recall1,2721,SHOW,20,2179,2592,0,0,,1
55d35447da14d7000e95318f,zjiexcl9sj,"Mediated Recall_Prolific",1,64,2023-03-04T18:29:00+00:00,3.5819849967957,3,versionB_stim.csv,ReadVersion.csv,Read,Read2,INCENSE,SMELL,Study2,F,28,23,Test,User,-,,Recall,Recall1,3397,SMELL,100,2920,3334,1,1,,1
55d35447da14d7000e95318f,zjiexcl9sj,"Mediated Recall_Prolific",1,65,2023-03-04T18:29:09+00:00,8.1217818260193,3,versionB_stim.csv,ReadVersion.csv,Read,Read2,ARTERY,BRONZE,Study2,U,48,27,Test,User,-,,Recall,Recall1,7794,HEART,18.181818181818,7337,7683,0,0,,1
55d35447da14d7000e95318f,zjiexcl9sj,"Mediated Recall_Prolific",1,66,2023-03-04T18:29:18+00:00,9.2433362007141,3,versionB_stim.csv,ReadVersion.csv,Read,Read2,MIRROR,CHILDREN,Study2,U,49,31,Test,User,-,,Recall,Recall1,8915,FACE,33.333333333333,8586,8832,0,0,,1
55d35447da14d7000e95318f,zjiexcl9sj,"Mediated Recall_Prolific",1,67,2023-03-04T18:29:25+00:00,7.2786109447479,3,versionB_stim.csv,ReadVersion.csv,Read,Read2,PANTS,COLLAR,Study2,M,8,42,Test,User,-,,Recall,Recall1,6951,COLLAR,100,6196,6844,1,1,,1
55d35447da14d7000e95318f,zjiexcl9sj,"Mediated Recall_Prolific",1,68,2023-03-04T18:29:30+00:00,5.0045030117035,3,versionB_stim.csv,ReadVersion.csv,Read,Read2,BRIDGE,WATER,Study2,F,35,41,Test,User,-,,Recall,Recall1,4806,WATER,100,4330,4700,1,1,,1
55d35447da14d7000e95318f,zjiexcl9sj,"Mediated Recall_Prolific",1,69,2023-03-04T18:29:33+00:00,2.9343068599701,3,versionB_stim.csv,ReadVersion.csv,Read,Read2,ATTIRE,CLOTHES,Study2,F,24,40,Test,User,-,,Recall,Recall1,2749,SHIRT,16.666666666667,2318,2661,0,0,,1
55d35447da14d7000e95318f,zjiexcl9sj,"Mediated Recall_Prolific",1,70,2023-03-04T18:29:42+00:00,9.1877541542053,3,versionB_stim.csv,ReadVersion.csv,Read,Read2,VALLEY,PEAK,Study2,M,18,38,Test,User,-,,Recall,Recall1,8849,PEAK,100,8517,8713,1,1,,1
55d35447da14d7000e95318f,zjiexcl9sj,"Mediated Recall_Prolific",1,71,2023-03-04T18:29:51+00:00,8.5389790534973,3,versionB_stim.csv,ReadVersion.csv,Read,Read2,CACTUS,PLANT,Study2,F,21,12,Test,User,-,,Recall,Recall1,8222,PLANT,100,7694,8047,1,1,,1
55d35447da14d7000e95318f,zjiexcl9sj,"Mediated Recall_Prolific",1,72,2023-03-04T18:29:54+00:00,2.8559119701385,3,versionB_stim.csv,ReadVersion.csv,Read,Read2,DIETARY,SACK,Study2,U,42,8,Test,User,-,,Recall,Recall1,2670,FOOD,0,2272,2590,0,0,,1
55d35447da14d7000e95318f,zjiexcl9sj,"Mediated Recall_Prolific",1,73,2023-03-04T18:29:59+00:00,4.9817678928375,3,versionB_stim.csv,ReadVersion.csv,Read,Read2,CHOP,CUT,Study2,F,22,28,Test,User,-,,Recall,Recall1,4796,CUT,100,3631,4563,1,1,,1
55d35447da14d7000e95318f,zjiexcl9sj,"Mediated Recall_Prolific",1,74,2023-03-04T18:30:02+00:00,3.1765899658203,3,versionB_stim.csv,ReadVersion.csv,Read,Read2,RAZOR,MUSCLE,Study2,M,20,37,Test,User,-,,Recall,Recall1,2997,KNIFE,18.181818181818,2651,2899,0,0,,1
55d35447da14d7000e95318f,zjiexcl9sj,"Mediated Recall_Prolific",1,75,2023-03-04T18:30:13+00:00,11.280847072601,3,versionB_stim.csv,ReadVersion.csv,Read,Read2,BOTH,OUNCE,Study2,U,47,50,Test,User,-,,Recall,Recall1,10972,TWIN,22.222222222222,10583,10872,0,0,,1
55d35447da14d7000e95318f,zjiexcl9sj,"Mediated Recall_Prolific",1,76,2023-03-04T18:30:23+00:00,10.147938966751,3,versionB_stim.csv,ReadVersion.csv,Read,Read2,SOAP,DRINK,Study2,M,12,32,Test,User,-,,Recall,Recall1,9831,DRINK,100,9145,9594,1,1,,1
55d35447da14d7000e95318f,zjiexcl9sj,"Mediated Recall_Prolific",1,77,2023-03-04T18:30:30+00:00,6.4549279212952,3,versionB_stim.csv,ReadVersion.csv,Read,Read2,SUGAR,RIDDLE,Study2,U,40,34,Test,User,-,,Recall,Recall1,6120,RIDDLE,100,5509,6012,1,1,,0.645
55d35447da14d7000e95318f,zjiexcl9sj,"Mediated Recall_Prolific",1,78,2023-03-04T18:30:36+00:00,6.7817831039429,3,versionB_stim.csv,ReadVersion.csv,Read,Read2,FEUD,FIGHT,Study2,F,31,14,Test,User,-,,Recall,Recall1,6454,FIGHT,100,5997,6355,1,1,,0.333
55d35447da14d7000e95318f,zjiexcl9sj,"Mediated Recall_Prolific",1,79,2023-03-04T18:30:40+00:00,3.5695059299469,3,versionB_stim.csv,ReadVersion.csv,Read,Read2,BENCH,HORN,Study2,U,43,44,Test,User,-,,Recall,Recall1,3381,BALL,0,2918,3235,0,0,,1
55d35447da14d7000e95318f,zjiexcl9sj,"Mediated Recall_Prolific",1,80,2023-03-04T18:30:43+00:00,3.3251509666443,3,versionB_stim.csv,ReadVersion.csv,Read,Read2,EYES,SMELL,Study2,M,10,25,Test,User,-,,Recall,Recall1,3135,SEE,50,2725,2950,0,0,,0.5
55d35447da14d7000e95318f,zjiexcl9sj,"Mediated Recall_Prolific",1,81,2023-03-04T18:30:49+00:00,5.3822360038757,3,versionB_stim.csv,ReadVersion.csv,Read,Read2,NURSE,LAWYER,Study2,M,11,51,Test,User,-,,Recall,Recall1,5061,LAWYER,100,4541,4979,1,1,,0.5
55d35447da14d7000e95318f,zjiexcl9sj,"Mediated Recall_Prolific",1,82,2023-03-04T18:30:54+00:00,5.2846760749817,3,versionB_stim.csv,ReadVersion.csv,Read,Read2,OVEN,BASKET,Study2,M,16,21,Test,User,-,,Recall,Recall1,4969,BASKET,100,3424,4803,1,1,,0.56
55d35447da14d7000e95318f,zjiexcl9sj,"Mediated Recall_Prolific",1,83,2023-03-04T18:30:58+00:00,4.0644841194153,3,versionB_stim.csv,ReadVersion.csv,Read,Read2,CHILL,COLD,Study2,F,32,36,Test,User,-,,Recall,Recall1,3859,COLD,100,3443,3759,1,1,,0.45
55d35447da14d7000e95318f,zjiexcl9sj,"Mediated Recall_Prolific",1,84,2023-03-04T18:31:00+00:00,1.8684778213501,3,versionB_stim.csv,ReadVersion.csv,Read,Read2,KING,VASE,Study2,U,36,19,Test,User,-,,Recall,Recall1,1678,QUEEN,22.222222222222,1036,1598,0,0,,1
55d35447da14d7000e95318f,zjiexcl9sj,"Mediated Recall_Prolific",1,85,2023-03-04T18:31:03+00:00,3.3943870067596,3,versionB_stim.csv,ReadVersion.csv,Read,Read2,ART,WOLF,Study2,U,38,35,Test,User,-,,Recall,Recall1,3208,WOLF,100,2751,3104,1,1,,0.563
55d35447da14d7000e95318f,zjiexcl9sj,"Mediated Recall_Prolific",1,86,2023-03-04T18:31:07+00:00,3.6158850193024,3,versionB_stim.csv,ReadVersion.csv,Read,Read2,CHERRY,RED,Study2,F,25,7,Test,User,-,,Recall,Recall1,3430,RED,100,2921,3147,1,1,,0.444
55d35447da14d7000e95318f,zjiexcl9sj,"Mediated Recall_Prolific",1,87,2023-03-04T18:31:11+00:00,3.9645550251007,3,versionB_stim.csv,ReadVersion.csv,Read,Read2,PUSH,CLUTTER,Study2,U,41,49,Test,User,-,,Recall,Recall1,3771,PULL,18.181818181818,3209,3629,0,0,,0.579
55d35447da14d7000e95318f,zjiexcl9sj,"Mediated Recall_Prolific",1,88,2023-03-04T18:31:17+00:00,6.0227971076965,3,versionB_stim.csv,ReadVersion.csv,Read,Read2,HORNET,STING,Study2,F,30,30,Test,User,-,,Recall,Recall1,5711,BEE,0,4600,4785,0,0,,0.483
55d35447da14d7000e95318f,zjiexcl9sj,"Mediated Recall_Prolific",1,89,2023-03-04T18:31:20+00:00,3.5843269824982,3,versionB_stim.csv,ReadVersion.csv,Read,Read2,HEAVY,FEATHER,Study2,M,13,47,Test,User,-,,Recall,Recall1,3394,LIGHT,16.666666666667,2955,3286,0,0,,0.412
55d35447da14d7000e95318f,zjiexcl9sj,"Mediated Recall_Prolific",1,90,2023-03-04T18:31:23+00:00,2.6311409473419,3,versionB_stim.csv,ReadVersion.csv,Read,Read2,HERD,COW,Study2,F,33,18,Test,User,-,,Recall,Recall1,2440,SHEEP,0,1878,2292,0,0,,1
55d35447da14d7000e95318f,zjiexcl9sj,"Mediated Recall_Prolific",1,91,2023-03-04T18:31:28+00:00,4.9331200122833,3,versionB_stim.csv,ReadVersion.csv,Read,Read2,LEAGUE,BASEBALL,Study2,F,29,24,Test,User,-,,Recall,Recall1,4210,BASEBALL,100,3310,3987,1,1,,0.524
55d35447da14d7000e95318f,zjiexcl9sj,"Mediated Recall_Prolific",1,92,2023-03-04T18:31:32+00:00,3.8470320701599,3,versionB_stim.csv,ReadVersion.csv,Read,Read2,HAPPY,CAR,Study2,U,37,39,Test,User,-,,Recall,Recall1,3597,CAR,100,3122,3392,1,1,,0.444
55d35447da14d7000e95318f,zjiexcl9sj,"Mediated Recall_Prolific",1,93,2023-03-04T18:31:34+00:00,1.8578398227692,3,versionB_stim.csv,ReadVersion.csv,Read,Read2,RAKE,SEED,Study2,M,14,10,Test,User,-,,Recall,Recall1,1665,LEAVES,40,1108,1589,0,0,,1
55d35447da14d7000e95318f,zjiexcl9sj,"Mediated Recall_Prolific",1,94,2023-03-04T18:31:36+00:00,2.2812120914459,3,versionB_stim.csv,ReadVersion.csv,Read,Read2,BLAZE,FIRE,Study2,F,26,15,Test,User,-,,Recall,Recall1,2093,FIRE,100,1776,2042,1,1,,1
55d35447da14d7000e95318f,zjiexcl9sj,"Mediated Recall_Prolific",1,95,2023-03-04T18:31:40+00:00,4.2035539150238,3,versionB_stim.csv,ReadVersion.csv,Read,Read2,DEATH,BUSINESS,Study2,U,44,11,Test,User,-,,Recall,Recall1,3889,BUSINESS,100,3167,3802,1,1,,0.6
55d35447da14d7000e95318f,zjiexcl9sj,"Mediated Recall_Prolific",1,96,2023-03-04T18:31:44+00:00,4.1053440570831,3,versionB_stim.csv,ReadVersion.csv,Read,Read2,CASH,LEG,Study2,U,50,20,Test,User,-,,Recall,Recall1,3911,MONEY,25,3431,3776,0,0,,0.6
55d35447da14d7000e95318f,zjiexcl9sj,"Mediated Recall_Prolific",1,97,2023-03-04T18:31:48+00:00,3.7707660198212,3,versionB_stim.csv,ReadVersion.csv,Read,Read2,GRILL,THIGH,Study2,M,17,22,Test,User,-,,Recall,Recall1,3582,THIGH,100,3157,3477,1,1,,0.5
55d35447da14d7000e95318f,zjiexcl9sj,"Mediated Recall_Prolific",1,98,2023-03-04T18:31:54+00:00,5.8594501018524,3,versionB_stim.csv,ReadVersion.csv,Read,Read2,SCHOOL,STOP,Study2,M,7,9,Test,User,-,,Recall,Recall1,5534,STOP,100,5123,5381,1,1,,0.357
55d35447da14d7000e95318f,zjiexcl9sj,"Mediated Recall_Prolific",1,99,2023-03-04T18:31:56+00:00,1.7675218582153,3,versionB_stim.csv,ReadVersion.csv,Read,Read2,STRONG,ACCIDENT,Study2,U,39,48,Test,User,-,,Recall,Recall1,1574,ARM,18.181818181818,1399,1502,0,0,,1
55d35447da14d7000e95318f,zjiexcl9sj,"Mediated Recall_Prolific",1,100,2023-03-04T18:32:01+00:00,4.898698091507,3,versionB_stim.csv,ReadVersion.csv,Read,Read2,SICK,HIDE,Study2,U,45,29,Test,User,-,,Recall,Recall1,4711,MEDICINE,16.666666666667,4045,4643,0,0,,0.583
55d35447da14d7000e95318f,zjiexcl9sj,"Mediated Recall_Prolific",1,101,2023-03-04T18:32:04+00:00,3.2379388809204,3,versionB_stim.csv,ReadVersion.csv,Read,Read2,WASP,BUG,Study2,F,34,13,Test,User,-,,Recall,Recall1,3045,BUG,100,2772,2879,1,1,,0.563
55d35447da14d7000e95318f,zjiexcl9sj,"Mediated Recall_Prolific",1,102,2023-03-04T18:32:12+00:00,8.4891810417175,3,versionB_stim.csv,ReadVersion.csv,Read,Read2,LEASE,TOIL,Study2,U,46,17,Test,User,-,,Recall,Recall1,8171,HOME,25,7807,8054,0,0,,0.512
55d35447da14d7000e95318f,zjiexcl9sj,"Mediated Recall_Prolific",1,103,2023-03-04T18:32:16+00:00,3.3737990856171,3,versionB_stim.csv,ReadVersion.csv,Read,Read2,SUMMER,SNOW,Study2,M,6,33,Test,User,-,,Recall,Recall1,3185,SUN,57.142857142857,2977,3057,0,0,,1
55d35447da14d7000e95318f,zjiexcl9sj,"Mediated Recall_Prolific",1,104,2023-03-04T18:32:20+00:00,4.5852019786835,3,versionB_stim.csv,ReadVersion.csv,Read,Read2,CHISEL,HAMMER,Study2,F,23,46,Test,User,-,,Recall,Recall1,4393,HAMMER,100,3806,4278,1,1,,0.455
55d35447da14d7000e95318f,zjiexcl9sj,"Mediated Recall_Prolific",1,105,2023-03-04T18:32:24+00:00,3.432051897049,3,versionB_stim.csv,ReadVersion.csv,Read,Read2,TRAP,CAVE,Study2,M,15,26,Test,User,-,,Recall,Recall1,3249,CAVE,100,2561,2815,1,1,,0.529
55d35447da14d7000e95318f,zjiexcl9sj,"Mediated Recall_Prolific",1,106,2023-03-04T18:32:35+00:00,10.832318067551,3,versionB_stim.csv,ReadVersion.csv,Read,Read2,,,,,,0,Instruct,-,10,"You will now be presented with a new set of word pairs. Please study each pair. Remember that your memory will be tested! When finished, press Enter to move to the next pair.",Initial_Instruct,Instruct4,10506,,,-1,-1,,,,0.358
55d35447da14d7000e95318f,zjiexcl9sj,"Mediated Recall_Prolific",1,107,2023-03-04T18:32:36+00:00,1.3095118999481,3,versionB_stim.csv,ReadVersion.csv,Read,Read2,,,,,,0,Instruct,User,-,"Press Enter when you are readty to begin",,Instruct11,1108,,,-1,-1,,,,1
55d35447da14d7000e95318f,zjiexcl9sj,"Mediated Recall_Prolific",1,108,2023-03-04T18:32:39+00:00,3.3505640029907,3,versionB_stim.csv,ReadVersion.csv,Read,Read2,SPACE,JAM,BUFFER1,Buffer,60,59,Study,User,-,,Study/JOL,BUFFER2,3153,,,-1,-1,,,,0.563
55d35447da14d7000e95318f,zjiexcl9sj,"Mediated Recall_Prolific",1,109,2023-03-04T18:32:43+00:00,3.5383059978485,3,versionB_stim.csv,ReadVersion.csv,Read,Read2,MOON,SPACE,BUFFER2,Buffer,109,111,Study,User,-,,Study/JOL,BUFFER2,3334,,,-1,-1,,,,0.471
55d35447da14d7000e95318f,zjiexcl9sj,"Mediated Recall_Prolific",1,110,2023-03-04T18:32:47+00:00,4.5679261684418,3,versionB_stim.csv,ReadVersion.csv,Read,Read2,ICE,FROZEN,BUFFER4,Buffer,54,55,Study,User,-,,Study/JOL,BUFFER2,4371,,,-1,-1,,,,0.455
55d35447da14d7000e95318f,zjiexcl9sj,"Mediated Recall_Prolific",1,111,2023-03-04T18:32:52+00:00,4.2093830108643,3,versionB_stim.csv,ReadVersion.csv,Read,Read2,SCARE,FRIGHT,BUFFER1,Buffer,59,60,Study,User,-,,Study/JOL,BUFFER2,4019,,,-1,-1,,,,0.5
55d35447da14d7000e95318f,zjiexcl9sj,"Mediated Recall_Prolific",1,112,2023-03-04T18:32:55+00:00,3.5809798240662,3,versionB_stim.csv,ReadVersion.csv,Read,Read2,SHRIMP,FISH,BUFFER4,Buffer,53,56,Study,User,-,,Study/JOL,BUFFER2,3251,,,-1,-1,,,,0.588
55d35447da14d7000e95318f,zjiexcl9sj,"Mediated Recall_Prolific",1,113,2023-03-04T18:32:58+00:00,3.2858819961548,3,versionB_stim.csv,ReadVersion.csv,Read,Read2,CEILING,CARPET,Study1,M,70,97,Study,User,-,,Study/JOL,"Study Phase2",3092,,,-1,-1,,,,0.688
55d35447da14d7000e95318f,zjiexcl9sj,"Mediated Recall_Prolific",1,114,2023-03-04T18:33:01+00:00,2.8554542064667,3,versionB_stim.csv,ReadVersion.csv,Read,Read2,WAGE,MONEY,Study1,F,77,85,Study,User,-,,Study/JOL,"Study Phase2",2661,,,-1,-1,,,,0.786
55d35447da14d7000e95318f,zjiexcl9sj,"Mediated Recall_Prolific",1,115,2023-03-04T18:33:04+00:00,3.0281999111176,3,versionB_stim.csv,ReadVersion.csv,Read,Read2,VEHICLE,CHARM,Study1,U,95,86,Study,User,-,,Study/JOL,"Study Phase2",2837,,,-1,-1,,,,0.733
55d35447da14d7000e95318f,zjiexcl9sj,"Mediated Recall_Prolific",1,116,2023-03-04T18:33:08+00:00,3.2404019832611,3,versionB_stim.csv,ReadVersion.csv,Read,Read2,ORCHID,FLOWER,Study1,F,89,96,Study,User,-,,Study/JOL,"Study Phase2",3052,,,-1,-1,,,,0.688
55d35447da14d7000e95318f,zjiexcl9sj,"Mediated Recall_Prolific",1,117,2023-03-04T18:33:11+00:00,3.1741709709167,3,versionB_stim.csv,ReadVersion.csv,Read,Read2,CREDIT,CARD,Study1,F,88,73,Study,User,-,,Study/JOL,"Study Phase2",2982,,,-1,-1,,,,0.667
55d35447da14d7000e95318f,zjiexcl9sj,"Mediated Recall_Prolific",1,118,2023-03-04T18:33:14+00:00,3.2824280261993,3,versionB_stim.csv,ReadVersion.csv,Read,Read2,SWAN,BIRD,Study1,F,81,72,Study,User,-,,Study/JOL,"Study Phase2",3100,,,-1,-1,,,,0.688
55d35447da14d7000e95318f,zjiexcl9sj,"Mediated Recall_Prolific",1,119,2023-03-04T18:33:17+00:00,3.0865430831909,3,versionB_stim.csv,ReadVersion.csv,Read,Read2,TREE,SYRUP,Study1,M,66,101,Study,User,-,,Study/JOL,"Study Phase2",2893,,,-1,-1,,,,0.667
55d35447da14d7000e95318f,zjiexcl9sj,"Mediated Recall_Prolific",1,120,2023-03-04T18:33:20+00:00,3.2823438644409,3,versionB_stim.csv,ReadVersion.csv,Read,Read2,MULE,DONKEY,Study1,F,79,103,Study,User,-,,Study/JOL,"Study Phase2",3087,,,-1,-1,,,,0.75
55d35447da14d7000e95318f,zjiexcl9sj,"Mediated Recall_Prolific",1,121,2023-03-04T18:33:25+00:00,4.175518989563,3,versionB_stim.csv,ReadVersion.csv,Read,Read2,NAP,SLEEP,Study1,F,84,89,Study,User,-,,Study/JOL,"Study Phase2",3981,,,-1,-1,,,,0.7
55d35447da14d7000e95318f,zjiexcl9sj,"Mediated Recall_Prolific",1,122,2023-03-04T18:33:31+00:00,6.2165141105652,3,versionB_stim.csv,ReadVersion.csv,Read,Read2,CIRCLE,DANCE,Study1,M,68,70,Study,User,-,,Study/JOL,"Study Phase2",5889,,,-1,-1,,,,0.367
55d35447da14d7000e95318f,zjiexcl9sj,"Mediated Recall_Prolific",1,123,2023-03-04T18:33:34+00:00,3.5913319587708,3,versionB_stim.csv,ReadVersion.csv,Read,Read2,HYGIENE,CLEAN,Study1,F,83,78,Study,User,-,,Study/JOL,"Study Phase2",3393,,,-1,-1,,,,0.706
55d35447da14d7000e95318f,zjiexcl9sj,"Mediated Recall_Prolific",1,124,2023-03-04T18:33:38+00:00,3.2813630104065,3,versionB_stim.csv,ReadVersion.csv,Read,Read2,MAZE,PHONE,Study1,U,97,90,Study,User,-,,Study/JOL,"Study Phase2",3079,,,-1,-1,,,,0.688
55d35447da14d7000e95318f,zjiexcl9sj,"Mediated Recall_Prolific",1,125,2023-03-04T18:33:41+00:00,3.2021059989929,3,versionB_stim.csv,ReadVersion.csv,Read,Read2,WEDDING,FINGER,Study1,M,72,94,Study,User,-,,Study/JOL,"Study Phase2",2995,,,-1,-1,,,,0.667
55d35447da14d7000e95318f,zjiexcl9sj,"Mediated Recall_Prolific",1,126,2023-03-04T18:33:45+00:00,4.0044078826904,3,versionB_stim.csv,ReadVersion.csv,Read,Read2,TUNA,FISH,Study1,F,90,100,Study,User,-,,Study/JOL,"Study Phase2",3811,,,-1,-1,,,,0.737
55d35447da14d7000e95318f,zjiexcl9sj,"Mediated Recall_Prolific",1,127,2023-03-04T18:33:48+00:00,3.2223091125488,3,versionB_stim.csv,ReadVersion.csv,Read,Read2,SCALP,HEAD,Study1,F,78,102,Study,User,-,,Study/JOL,"Study Phase2",3034,,,-1,-1,,,,0.688
55d35447da14d7000e95318f,zjiexcl9sj,"Mediated Recall_Prolific",1,128,2023-03-04T18:33:53+00:00,4.6872448921204,3,versionB_stim.csv,ReadVersion.csv,Read,Read2,HARD,COTTON,Study1,M,75,79,Study,User,-,,Study/JOL,"Study Phase2",4504,,,-1,-1,,,,0.522
55d35447da14d7000e95318f,zjiexcl9sj,"Mediated Recall_Prolific",1,129,2023-03-04T18:33:56+00:00,3.0672471523285,3,versionB_stim.csv,ReadVersion.csv,Read,Read2,SOON,BELT,Study1,U,101,92,Study,User,-,,Study/JOL,"Study Phase2",2877,,,-1,-1,,,,0.667
55d35447da14d7000e95318f,zjiexcl9sj,"Mediated Recall_Prolific",1,130,2023-03-04T18:33:59+00:00,2.745365858078,3,versionB_stim.csv,ReadVersion.csv,Read,Read2,WAR,QUIET,Study1,M,63,81,Study,User,-,,Study/JOL,"Study Phase2",2553,,,-1,-1,,,,0.692
55d35447da14d7000e95318f,zjiexcl9sj,"Mediated Recall_Prolific",1,131,2023-03-04T18:34:02+00:00,3.3565430641174,3,versionB_stim.csv,ReadVersion.csv,Read,Read2,TEMPERATURE,MORNING,Study1,U,103,65,Study,User,-,,Study/JOL,"Study Phase2",3173,,,-1,-1,,,,0.75
55d35447da14d7000e95318f,zjiexcl9sj,"Mediated Recall_Prolific",1,132,2023-03-04T18:34:05+00:00,3.2175059318542,3,versionB_stim.csv,ReadVersion.csv,Read,Read2,ROOT,PLANT,Study1,F,80,63,Study,User,-,,Study/JOL,"Study Phase2",3029,,,-1,-1,,,,0.75
55d35447da14d7000e95318f,zjiexcl9sj,"Mediated Recall_Prolific",1,133,2023-03-04T18:34:08+00:00,3.1890959739685,3,versionB_stim.csv,ReadVersion.csv,Read,Read2,HORSE,WHEEL,Study1,M,69,95,Study,User,-,,Study/JOL,"Study Phase2",3000,,,-1,-1,,,,0.667
55d35447da14d7000e95318f,zjiexcl9sj,"Mediated Recall_Prolific",1,134,2023-03-04T18:34:13+00:00,4.4138240814209,3,versionB_stim.csv,ReadVersion.csv,Read,Read2,MIRROR,MAROON,Study1,U,91,64,Study,User,-,,Study/JOL,"Study Phase2",4216,,,-1,-1,,,,0.591
55d35447da14d7000e95318f,zjiexcl9sj,"Mediated Recall_Prolific",1,135,2023-03-04T18:34:17+00:00,4.5511629581451,3,versionB_stim.csv,ReadVersion.csv,Read,Read2,SIP,DRINK,Study1,F,87,87,Study,User,-,,Study/JOL,"Study Phase2",4363,,,-1,-1,,,,0.455
55d35447da14d7000e95318f,zjiexcl9sj,"Mediated Recall_Prolific",1,136,2023-03-04T18:34:22+00:00,4.8527879714966,3,versionB_stim.csv,ReadVersion.csv,Read,Read2,TOOTH,HAIR,Study1,M,74,83,Study,User,-,,Study/JOL,"Study Phase2",4666,,,-1,-1,,,,0.625
55d35447da14d7000e95318f,zjiexcl9sj,"Mediated Recall_Prolific",1,137,2023-03-04T18:34:25+00:00,3.3569672107697,3,versionB_stim.csv,ReadVersion.csv,Read,Read2,FUZZY,BANG,Study1,U,105,76,Study,User,-,,Study/JOL,"Study Phase2",3141,,,-1,-1,,,,0.688
55d35447da14d7000e95318f,zjiexcl9sj,"Mediated Recall_Prolific",1,138,2023-03-04T18:34:29+00:00,3.853492975235,3,versionB_stim.csv,ReadVersion.csv,Read,Read2,MEAT,KEYS,Study1,U,96,69,Study,User,-,,Study/JOL,"Study Phase2",3657,,,-1,-1,,,,0.684
55d35447da14d7000e95318f,zjiexcl9sj,"Mediated Recall_Prolific",1,139,2023-03-04T18:34:33+00:00,3.7475519180298,3,versionB_stim.csv,ReadVersion.csv,Read,Read2,STRETCH,CLOTH,Study1,U,92,105,Study,User,-,,Study/JOL,"Study Phase2",3539,,,-1,-1,,,,0.667
55d35447da14d7000e95318f,zjiexcl9sj,"Mediated Recall_Prolific",1,140,2023-03-04T18:34:36+00:00,3.303288936615,3,versionB_stim.csv,ReadVersion.csv,Read,Read2,GIVE,STEAK,Study1,U,93,104,Study,User,-,,Study/JOL,"Study Phase2",3112,,,-1,-1,,,,0.75
55d35447da14d7000e95318f,zjiexcl9sj,"Mediated Recall_Prolific",1,141,2023-03-04T18:34:40+00:00,3.1722421646118,3,versionB_stim.csv,ReadVersion.csv,Read,Read2,CAKE,HAND,Study1,U,104,77,Study,User,-,,Study/JOL,"Study Phase2",2984,,,-1,-1,,,,0.733
55d35447da14d7000e95318f,zjiexcl9sj,"Mediated Recall_Prolific",1,142,2023-03-04T18:34:44+00:00,4.9140717983246,3,versionB_stim.csv,ReadVersion.csv,Read,Read2,LION,STRIPES,Study1,M,61,82,Study,User,-,,Study/JOL,"Study Phase2",4735,,,-1,-1,,,,0.583
55d35447da14d7000e95318f,zjiexcl9sj,"Mediated Recall_Prolific",1,143,2023-03-04T18:34:48+00:00,3.576865196228,3,versionB_stim.csv,ReadVersion.csv,Read,Read2,BIRTHDAY,PIE,Study1,M,64,68,Study,User,-,,Study/JOL,"Study Phase2",3386,,,-1,-1,,,,0.706
55d35447da14d7000e95318f,zjiexcl9sj,"Mediated Recall_Prolific",1,144,2023-03-04T18:34:52+00:00,3.971296787262,3,versionB_stim.csv,ReadVersion.csv,Read,Read2,LITTER,TRASH,Study1,F,76,62,Study,User,-,,Study/JOL,"Study Phase2",3782,,,-1,-1,,,,0.632
55d35447da14d7000e95318f,zjiexcl9sj,"Mediated Recall_Prolific",1,145,2023-03-04T18:34:55+00:00,3.3014781475067,3,versionB_stim.csv,ReadVersion.csv,Read,Read2,AFFECTION,LOVE,Study1,F,86,99,Study,User,-,,Study/JOL,"Study Phase2",3111,,,-1,-1,,,,0.75
55d35447da14d7000e95318f,zjiexcl9sj,"Mediated Recall_Prolific",1,146,2023-03-04T18:34:59+00:00,3.2769410610199,3,versionB_stim.csv,ReadVersion.csv,Read,Read2,BEACH,BOX,Study1,M,62,71,Study,User,-,,Study/JOL,"Study Phase2",3084,,,-1,-1,,,,0.75
55d35447da14d7000e95318f,zjiexcl9sj,"Mediated Recall_Prolific",1,147,2023-03-04T18:35:02+00:00,3.0646529197693,3,versionB_stim.csv,ReadVersion.csv,Read,Read2,DAY,DARK,Study1,M,73,75,Study,User,-,,Study/JOL,"Study Phase2",2878,,,-1,-1,,,,0.733
55d35447da14d7000e95318f,zjiexcl9sj,"Mediated Recall_Prolific",1,148,2023-03-04T18:35:05+00:00,3.3036658763885,3,versionB_stim.csv,ReadVersion.csv,Read,Read2,CRY,BOTTLE,Study1,M,71,106,Study,User,-,,Study/JOL,"Study Phase2",3119,,,-1,-1,,,,0.625
55d35447da14d7000e95318f,zjiexcl9sj,"Mediated Recall_Prolific",1,149,2023-03-04T18:35:09+00:00,4.2581210136414,3,versionB_stim.csv,ReadVersion.csv,Read,Read2,SIGN,TICK,Study1,U,102,91,Study,User,-,,Study/JOL,"Study Phase2",4059,,,-1,-1,,,,0.571
55d35447da14d7000e95318f,zjiexcl9sj,"Mediated Recall_Prolific",1,150,2023-03-04T18:35:13+00:00,3.9543809890747,3,versionB_stim.csv,ReadVersion.csv,Read,Read2,CRACKLE,ELECTION,Study1,U,94,93,Study,User,-,,Study/JOL,"Study Phase2",3762,,,-1,-1,,,,0.737
55d35447da14d7000e95318f,zjiexcl9sj,"Mediated Recall_Prolific",1,151,2023-03-04T18:35:16+00:00,2.8399980068207,3,versionB_stim.csv,ReadVersion.csv,Read,Read2,MULE,DONKEY,Study1,F,85,66,Study,User,-,,Study/JOL,"Study Phase2",2651,,,-1,-1,,,,0.714
55d35447da14d7000e95318f,zjiexcl9sj,"Mediated Recall_Prolific",1,152,2023-03-04T18:35:19+00:00,2.9306101799011,3,versionB_stim.csv,ReadVersion.csv,Read,Read2,WORD,SENTENCE,Study1,F,82,88,Study,User,-,,Study/JOL,"Study Phase2",2737,,,-1,-1,,,,0.714
55d35447da14d7000e95318f,zjiexcl9sj,"Mediated Recall_Prolific",1,153,2023-03-04T18:35:22+00:00,2.8317539691925,3,versionB_stim.csv,ReadVersion.csv,Read,Read2,BAT,BOUNCE,Study1,M,67,74,Study,User,-,,Study/JOL,"Study Phase2",2633,,,-1,-1,,,,0.714
55d35447da14d7000e95318f,zjiexcl9sj,"Mediated Recall_Prolific",1,154,2023-03-04T18:35:25+00:00,3.050078868866,3,versionB_stim.csv,ReadVersion.csv,Read,Read2,LISTEN,FICTION,Study1,U,99,67,Study,User,-,,Study/JOL,"Study Phase2",2860,,,-1,-1,,,,0.733
55d35447da14d7000e95318f,zjiexcl9sj,"Mediated Recall_Prolific",1,155,2023-03-04T18:35:28+00:00,3.0910069942474,3,versionB_stim.csv,ReadVersion.csv,Read,Read2,ROUGH,SILK,Study1,M,65,84,Study,User,-,,Study/JOL,"Study Phase2",2898,,,-1,-1,,,,0.733
55d35447da14d7000e95318f,zjiexcl9sj,"Mediated Recall_Prolific",1,156,2023-03-04T18:35:34+00:00,5.615070104599,3,versionB_stim.csv,ReadVersion.csv,Read,Read2,SHELL,SHAKE,Study1,U,98,98,Study,User,-,,Study/JOL,"Study Phase2",5280,,,-1,-1,,,,0.407
55d35447da14d7000e95318f,zjiexcl9sj,"Mediated Recall_Prolific",1,157,2023-03-04T18:35:37+00:00,3.0622110366821,3,versionB_stim.csv,ReadVersion.csv,Read,Read2,KEYS,ROD,Study1,U,100,80,Study,User,-,,Study/JOL,"Study Phase2",2869,,,-1,-1,,,,0.667
55d35447da14d7000e95318f,zjiexcl9sj,"Mediated Recall_Prolific",1,158,2023-03-04T18:35:40+00:00,3.5719928741455,3,versionB_stim.csv,ReadVersion.csv,Read,Read2,SHERRIF,POLICE,BUFFER2,Buffer,107,108,Study,User,-,,Study/JOL,BUFFER2,3377,,,-1,-1,,,,0.706
55d35447da14d7000e95318f,zjiexcl9sj,"Mediated Recall_Prolific",1,159,2023-03-04T18:35:43+00:00,2.9971461296082,3,versionB_stim.csv,ReadVersion.csv,Read,Read2,CARROT,POTATO,BUFFER4,Buffer,51,53,Study,User,-,,Study/JOL,BUFFER2,2793,,,-1,-1,,,,0.714
55d35447da14d7000e95318f,zjiexcl9sj,"Mediated Recall_Prolific",1,160,2023-03-04T18:35:47+00:00,4.0811829566956,3,versionB_stim.csv,ReadVersion.csv,Read,Read2,TREES,GREEN,BUFFER1,Buffer,56,58,Study,User,-,,Study/JOL,BUFFER2,3889,,,-1,-1,,,,0.55
55d35447da14d7000e95318f,zjiexcl9sj,"Mediated Recall_Prolific",1,161,2023-03-04T18:35:51+00:00,3.2680940628052,3,versionB_stim.csv,ReadVersion.csv,Read,Read2,CAMP,ADVENTURE,BUFFER4,Buffer,55,54,Study,User,-,,Study/JOL,BUFFER2,3073,,,-1,-1,,,,0.625
55d35447da14d7000e95318f,zjiexcl9sj,"Mediated Recall_Prolific",1,162,2023-03-04T18:35:54+00:00,3.2580878734589,3,versionB_stim.csv,ReadVersion.csv,Read,Read2,GEESE,GOOSE,BUFFER2,Buffer,106,110,Study,User,-,,Study/JOL,BUFFER2,3057,,,-1,-1,,,,0.688
55d35447da14d7000e95318f,zjiexcl9sj,"Mediated Recall_Prolific",1,163,2023-03-04T18:35:56+00:00,2.4943461418152,3,versionB_stim.csv,ReadVersion.csv,Read,Read2,,,,,,0,Instruct,User,-,"You have completed this section. Please press Enter.",Filler_Instruction,Instruct2,2303,,,-1,-1,,,,1
55d35447da14d7000e95318f,zjiexcl9sj,"Mediated Recall_Prolific",1,164,2023-03-04T18:37:57+00:00,120.51751089096,3,versionB_stim.csv,ReadVersion.csv,Read,Read2,,,,,,0,FreeRecall,120,120,"Please list the 50 US states in alphabetical order. The task will automatically advance to the next screen after two minutes.",,Filler1,120009,"Alabama Alaska Arizona Arkansas California Connecticut Florida Hawaii",0,5311,20195,0,0,,0.962
55d35447da14d7000e95318f,zjiexcl9sj,"Mediated Recall_Prolific",1,165,2023-03-04T18:38:08+00:00,10.776371002197,3,versionB_stim.csv,ReadVersion.csv,Read,Read2,,,,,,0,Instruct,-,10,"You will now be presented with the first word from each of the previously studied item pairs. Please type the missing word. If you do not know the word, you may guess or press Enter to skip forward to the next pair.",,Instruct3,10421,,,-1,-1,,,,0.365
55d35447da14d7000e95318f,zjiexcl9sj,"Mediated Recall_Prolific",1,166,2023-03-04T18:38:12+00:00,4.6901059150696,3,versionB_stim.csv,ReadVersion.csv,Read,Read2,AFFECTION,LOVE,Study1,F,86,99,Test,User,-,,Recall,Recall2,4490,LOVE,100,3339,4415,1,1,,0.652
55d35447da14d7000e95318f,zjiexcl9sj,"Mediated Recall_Prolific",1,167,2023-03-04T18:38:15+00:00,2.6625220775604,3,versionB_stim.csv,ReadVersion.csv,Read,Read2,LISTEN,FICTION,Study1,U,99,67,Test,User,-,,Recall,Recall2,2467,SCHOOL,30.769230769231,1763,2332,0,0,,1
55d35447da14d7000e95318f,zjiexcl9sj,"Mediated Recall_Prolific",1,168,2023-03-04T18:38:16+00:00,1.0418770313263,3,versionB_stim.csv,ReadVersion.csv,Read,Read2,TOOTH,HAIR,Study1,M,74,83,Test,User,-,,Recall,Recall2,850,,0,-1,-1,0,0,,1
55d35447da14d7000e95318f,zjiexcl9sj,"Mediated Recall_Prolific",1,169,2023-03-04T18:38:20+00:00,4.3469550609589,3,versionB_stim.csv,ReadVersion.csv,Read,Read2,WAR,QUIET,Study1,M,63,81,Test,User,-,,Recall,Recall2,3997,GUN,25,3713,3817,0,0,,0.55
55d35447da14d7000e95318f,zjiexcl9sj,"Mediated Recall_Prolific",1,170,2023-03-04T18:38:24+00:00,3.5339448451996,3,versionB_stim.csv,ReadVersion.csv,Read,Read2,SWAN,BIRD,Study1,F,81,72,Test,User,-,,Recall,Recall2,3346,BIRD,100,2969,3293,1,1,,0.529
55d35447da14d7000e95318f,zjiexcl9sj,"Mediated Recall_Prolific",1,171,2023-03-04T18:38:28+00:00,4.5049171447754,3,versionB_stim.csv,ReadVersion.csv,Read,Read2,HORSE,WHEEL,Study1,M,69,95,Test,User,-,,Recall,Recall2,4311,RIDE,22.222222222222,3983,4263,0,0,,0.455
55d35447da14d7000e95318f,zjiexcl9sj,"Mediated Recall_Prolific",1,172,2023-03-04T18:38:32+00:00,3.7427229881287,3,versionB_stim.csv,ReadVersion.csv,Read,Read2,CRACKLE,ELECTION,Study1,U,94,93,Test,User,-,,Recall,Recall2,3553,FIRE,16.666666666667,3196,3443,0,0,,0.611
55d35447da14d7000e95318f,zjiexcl9sj,"Mediated Recall_Prolific",1,173,2023-03-04T18:38:37+00:00,4.7216639518738,3,versionB_stim.csv,ReadVersion.csv,Read,Read2,SIP,DRINK,Study1,F,87,87,Test,User,-,,Recall,Recall2,4528,DRINK,100,3405,4370,1,1,,0.478
55d35447da14d7000e95318f,zjiexcl9sj,"Mediated Recall_Prolific",1,174,2023-03-04T18:38:39+00:00,2.4520308971405,3,versionB_stim.csv,ReadVersion.csv,Read,Read2,HYGIENE,CLEAN,Study1,F,83,78,Test,User,-,,Recall,Recall2,2258,COLOGNE,50,1583,2197,0,0,,1
55d35447da14d7000e95318f,zjiexcl9sj,"Mediated Recall_Prolific",1,175,2023-03-04T18:38:42+00:00,3.1668291091919,3,versionB_stim.csv,ReadVersion.csv,Read,Read2,BEACH,BOX,Study1,M,62,71,Test,User,-,,Recall,Recall2,2956,BOX,100,2706,2844,1,1,,0.6
55d35447da14d7000e95318f,zjiexcl9sj,"Mediated Recall_Prolific",1,176,2023-03-04T18:38:47+00:00,4.8191299438477,3,versionB_stim.csv,ReadVersion.csv,Read,Read2,LION,STRIPES,Study1,M,61,82,Test,User,-,,Recall,Recall2,4628,FICTION,14.285714285714,3983,4451,0,0,,0.652
55d35447da14d7000e95318f,zjiexcl9sj,"Mediated Recall_Prolific",1,177,2023-03-04T18:38:52+00:00,4.5698580741882,3,versionB_stim.csv,ReadVersion.csv,Read,Read2,SCALP,HEAD,Study1,F,78,102,Test,User,-,,Recall,Recall2,4372,HEAD,100,4029,4277,1,1,,0.409
55d35447da14d7000e95318f,zjiexcl9sj,"Mediated Recall_Prolific",1,178,2023-03-04T18:38:59+00:00,6.8876919746399,3,versionB_stim.csv,ReadVersion.csv,Read,Read2,CRY,BOTTLE,Study1,M,71,106,Test,User,-,,Recall,Recall2,6561,TEAR,40,6235,6451,0,0,,0.303
55d35447da14d7000e95318f,zjiexcl9sj,"Mediated Recall_Prolific",1,179,2023-03-04T18:39:03+00:00,4.4677019119263,3,versionB_stim.csv,ReadVersion.csv,Read,Read2,TEMPERATURE,MORNING,Study1,U,103,65,Test,User,-,,Recall,Recall2,4254,MORNING,100,3573,4116,1,1,,0.5
55d35447da14d7000e95318f,zjiexcl9sj,"Mediated Recall_Prolific",1,180,2023-03-04T18:39:07+00:00,3.7926421165466,3,versionB_stim.csv,ReadVersion.csv,Read,Read2,TREE,SYRUP,Study1,M,66,101,Test,User,-,,Recall,Recall2,3595,GREEN,20,2691,3494,0,0,,0.5
55d35447da14d7000e95318f,zjiexcl9sj,"Mediated Recall_Prolific",1,181,2023-03-04T18:39:11+00:00,4.0582668781281,3,versionB_stim.csv,ReadVersion.csv,Read,Read2,CIRCLE,DANCE,Study1,M,68,70,Test,User,-,,Recall,Recall2,3862,DANCE,100,2952,3773,1,1,,0.5
55d35447da14d7000e95318f,zjiexcl9sj,"Mediated Recall_Prolific",1,182,2023-03-04T18:39:15+00:00,4.1971120834351,3,versionB_stim.csv,ReadVersion.csv,Read,Read2,FUZZY,BANG,Study1,U,105,76,Test,User,-,,Recall,Recall2,4007,BANG,100,3649,3898,1,1,,0.5
55d35447da14d7000e95318f,zjiexcl9sj,"Mediated Recall_Prolific",1,183,2023-03-04T18:39:18+00:00,2.5310170650482,3,versionB_stim.csv,ReadVersion.csv,Read,Read2,CAKE,HAND,Study1,U,104,77,Test,User,-,,Recall,Recall2,2339,CANDLE,60,1606,2246,0,0,,1
55d35447da14d7000e95318f,zjiexcl9sj,"Mediated Recall_Prolific",1,184,2023-03-04T18:39:23+00:00,4.8290259838104,3,versionB_stim.csv,ReadVersion.csv,Read,Read2,MULE,DONKEY,Study1,F,79,103,Test,User,-,,Recall,Recall2,4635,DONKEY,100,3891,4493,1,1,,0.542
55d35447da14d7000e95318f,zjiexcl9sj,"Mediated Recall_Prolific",1,185,2023-03-04T18:39:27+00:00,4.5363810062408,3,versionB_stim.csv,ReadVersion.csv,Read,Read2,SOON,BELT,Study1,U,101,92,Test,User,-,,Recall,Recall2,4340,ARRIVE,20,3760,4257,0,0,,0.5
55d35447da14d7000e95318f,zjiexcl9sj,"Mediated Recall_Prolific",1,186,2023-03-04T18:39:34+00:00,6.7901120185852,3,versionB_stim.csv,ReadVersion.csv,Read,Read2,KEYS,ROD,Study1,U,100,80,Test,User,-,,Recall,Recall2,6465,ROD,100,6094,6367,1,1,,0.273
55d35447da14d7000e95318f,zjiexcl9sj,"Mediated Recall_Prolific",1,187,2023-03-04T18:39:36+00:00,2.2292590141296,3,versionB_stim.csv,ReadVersion.csv,Read,Read2,WEDDING,FINGER,Study1,M,72,94,Test,User,-,,Recall,Recall2,2035,CAKE,20,1556,1781,0,0,,1
55d35447da14d7000e95318f,zjiexcl9sj,"Mediated Recall_Prolific",1,188,2023-03-04T18:39:40+00:00,3.8697988986969,3,versionB_stim.csv,ReadVersion.csv,Read,Read2,WORD,SENTENCE,Study1,F,82,88,Test,User,-,,Recall,Recall2,3675,SENTENCE,100,2863,3588,1,1,,0.579
55d35447da14d7000e95318f,zjiexcl9sj,"Mediated Recall_Prolific",1,189,2023-03-04T18:39:42+00:00,2.142853975296,3,versionB_stim.csv,ReadVersion.csv,Read,Read2,BAT,BOUNCE,Study1,M,67,74,Test,User,-,,Recall,Recall2,1924,FLY,0,1515,1741,0,0,,1
55d35447da14d7000e95318f,zjiexcl9sj,"Mediated Recall_Prolific",1,190,2023-03-04T18:39:46+00:00,3.6784119606018,3,versionB_stim.csv,ReadVersion.csv,Read,Read2,SIGN,TICK,Study1,U,102,91,Test,User,-,,Recall,Recall2,3482,STOP,25,2762,3300,0,0,,0.5
55d35447da14d7000e95318f,zjiexcl9sj,"Mediated Recall_Prolific",1,191,2023-03-04T18:39:52+00:00,5.8917880058289,3,versionB_stim.csv,ReadVersion.csv,Read,Read2,SHELL,SHAKE,Study1,U,98,98,Test,User,-,,Recall,Recall2,5573,SHAKE,100,3545,5366,1,1,,0.607
55d35447da14d7000e95318f,zjiexcl9sj,"Mediated Recall_Prolific",1,192,2023-03-04T18:39:56+00:00,4.5149309635162,3,versionB_stim.csv,ReadVersion.csv,Read,Read2,MULE,DONKEY,Study1,F,85,66,Test,User,-,,Recall,Recall2,4321,DONKEY,100,3178,4183,1,1,,0.545
55d35447da14d7000e95318f,zjiexcl9sj,"Mediated Recall_Prolific",1,193,2023-03-04T18:39:59+00:00,3.0874660015106,3,versionB_stim.csv,ReadVersion.csv,Read,Read2,MAZE,PHONE,Study1,U,97,90,Test,User,-,,Recall,Recall2,2890,RIDDLE,18.181818181818,2279,2779,0,0,,0.733
55d35447da14d7000e95318f,zjiexcl9sj,"Mediated Recall_Prolific",1,194,2023-03-04T18:40:05+00:00,5.690199136734,3,versionB_stim.csv,ReadVersion.csv,Read,Read2,DAY,DARK,Study1,M,73,75,Test,User,-,,Recall,Recall2,5363,DARK,100,4505,5203,1,1,,0.333
55d35447da14d7000e95318f,zjiexcl9sj,"Mediated Recall_Prolific",1,195,2023-03-04T18:40:09+00:00,3.9545788764954,3,versionB_stim.csv,ReadVersion.csv,Read,Read2,LITTER,TRASH,Study1,F,76,62,Test,User,-,,Recall,Recall2,3736,TRASH,100,2931,3511,1,1,,0.421
55d35447da14d7000e95318f,zjiexcl9sj,"Mediated Recall_Prolific",1,196,2023-03-04T18:40:11+00:00,2.2200059890747,3,versionB_stim.csv,ReadVersion.csv,Read,Read2,WAGE,MONEY,Study1,F,77,85,Test,User,-,,Recall,Recall2,2027,JOB,25,1656,1858,0,0,,1
55d35447da14d7000e95318f,zjiexcl9sj,"Mediated Recall_Prolific",1,197,2023-03-04T18:40:14+00:00,2.3410382270813,3,versionB_stim.csv,ReadVersion.csv,Read,Read2,CREDIT,CARD,Study1,F,88,73,Test,User,-,,Recall,Recall2,2153,CARD,100,1682,2056,1,1,,1
55d35447da14d7000e95318f,zjiexcl9sj,"Mediated Recall_Prolific",1,198,2023-03-04T18:40:20+00:00,6.3593437671661,3,versionB_stim.csv,ReadVersion.csv,Read,Read2,ROOT,PLANT,Study1,F,80,63,Test,User,-,,Recall,Recall2,6024,PLANT,100,4554,5795,1,1,,0.667
55d35447da14d7000e95318f,zjiexcl9sj,"Mediated Recall_Prolific",1,199,2023-03-04T18:40:22+00:00,1.6128082275391,3,versionB_stim.csv,ReadVersion.csv,Read,Read2,GIVE,STEAK,Study1,U,93,104,Test,User,-,,Recall,Recall2,1415,TAKE,66.666666666667,1123,1324,0,0,,1
55d35447da14d7000e95318f,zjiexcl9sj,"Mediated Recall_Prolific",1,200,2023-03-04T18:40:26+00:00,4.9184279441833,3,versionB_stim.csv,ReadVersion.csv,Read,Read2,TUNA,FISH,Study1,F,90,100,Test,User,-,,Recall,Recall2,4728,FISH,100,4366,4614,1,1,,0.375
55d35447da14d7000e95318f,zjiexcl9sj,"Mediated Recall_Prolific",1,201,2023-03-04T18:40:29+00:00,2.1205689907074,3,versionB_stim.csv,ReadVersion.csv,Read,Read2,ORCHID,FLOWER,Study1,F,89,96,Test,User,-,,Recall,Recall2,1930,FLOWER,100,1323,1855,1,1,,1
55d35447da14d7000e95318f,zjiexcl9sj,"Mediated Recall_Prolific",1,202,2023-03-04T18:40:30+00:00,1.7145850658417,3,versionB_stim.csv,ReadVersion.csv,Read,Read2,VEHICLE,CHARM,Study1,U,95,86,Test,User,-,,Recall,Recall2,1522,CAR,75,931,1185,0,1,,1
55d35447da14d7000e95318f,zjiexcl9sj,"Mediated Recall_Prolific",1,203,2023-03-04T18:40:35+00:00,4.8072187900543,3,versionB_stim.csv,ReadVersion.csv,Read,Read2,MIRROR,MAROON,Study1,U,91,64,Test,User,-,,Recall,Recall2,4613,MAROON,100,3999,4440,1,1,,0.522
55d35447da14d7000e95318f,zjiexcl9sj,"Mediated Recall_Prolific",1,204,2023-03-04T18:40:38+00:00,2.6347839832306,3,versionB_stim.csv,ReadVersion.csv,Read,Read2,STRETCH,CLOTH,Study1,U,92,105,Test,User,-,,Recall,Recall2,2441,GYM,0,2116,2370,0,0,,1
55d35447da14d7000e95318f,zjiexcl9sj,"Mediated Recall_Prolific",1,205,2023-03-04T18:40:40+00:00,2.6432161331177,3,versionB_stim.csv,ReadVersion.csv,Read,Read2,NAP,SLEEP,Study1,F,84,89,Test,User,-,,Recall,Recall2,2431,SLEEP,100,1507,2265,1,1,,1
55d35447da14d7000e95318f,zjiexcl9sj,"Mediated Recall_Prolific",1,206,2023-03-04T18:40:44+00:00,3.9863848686218,3,versionB_stim.csv,ReadVersion.csv,Read,Read2,ROUGH,SILK,Study1,M,65,84,Test,User,-,,Recall,Recall2,3799,SILK,100,3288,3634,1,1,,0.526
55d35447da14d7000e95318f,zjiexcl9sj,"Mediated Recall_Prolific",1,207,2023-03-04T18:40:51+00:00,6.3691530227661,3,versionB_stim.csv,ReadVersion.csv,Read,Read2,MEAT,KEYS,Study1,U,96,69,Test,User,-,,Recall,Recall2,6040,EAT,28.571428571429,5860,5957,0,0,,0.613
55d35447da14d7000e95318f,zjiexcl9sj,"Mediated Recall_Prolific",1,208,2023-03-04T18:40:56+00:00,5.2634119987488,3,versionB_stim.csv,ReadVersion.csv,Read,Read2,BIRTHDAY,PIE,Study1,M,64,68,Test,User,-,,Recall,Recall2,4940,CAKE,28.571428571429,4679,4870,0,0,,0.44
55d35447da14d7000e95318f,zjiexcl9sj,"Mediated Recall_Prolific",1,209,2023-03-04T18:41:00+00:00,4.3936231136322,3,versionB_stim.csv,ReadVersion.csv,Read,Read2,HARD,COTTON,Study1,M,75,79,Test,User,-,,Recall,Recall2,4197,COTTON,100,3190,4062,1,1,,0.524
55d35447da14d7000e95318f,zjiexcl9sj,"Mediated Recall_Prolific",1,210,2023-03-04T18:41:05+00:00,4.4794158935547,3,versionB_stim.csv,ReadVersion.csv,Read,Read2,CEILING,CARPET,Study1,M,70,97,Test,User,-,,Recall,Recall2,4285,CARPET,100,3391,4194,1,1,,0.455
55d35447da14d7000e95318f,zjiexcl9sj,"Mediated Recall_Prolific",1,211,2023-03-04T18:41:07+00:00,2.0614151954651,3,versionB_stim.csv,ReadVersion.csv,Read,Read2,,,,,,0,Instruct,User,-,"You have completed this section. Please press Enter.",,Instruct7,1866,,,-1,-1,,,,1
55d35447da14d7000e95318f,zjiexcl9sj,"Mediated Recall_Prolific",1,212,2023-03-04T18:41:10+00:00,2.6212649345398,3,versionB_stim.csv,ReadVersion.csv,Read,Read2,,,,,,0,Instruct,User,-,"The following screen will ask you a few questions abour your experience today. You must complete these questions to receive credit.",,Instruct8,2409,,,-1,-1,,,,1
