Username,ID,ExperimentName,Session,Trial,Date,TimeDif,"Condition Number","Stimuli File","Order File","Condition Description","Condition Notes",Stimuli*Cue,Stimuli*Answer,Stimuli*Shuffle,"Stimuli*Stimuli Notes",Stimuli*Value,Procedure*Item,"Procedure*Trial Type","Procedure*Max Time","Procedure*Min Time",Procedure*Text,"Procedure*Procedure Notes",Procedure*Shuffle,Response*RT,Response*Response,Response*Accuracy,Response*RTfirst,Response*RTlast,Response*strictAcc,Response*lenientAcc,Response*focus,Response*Focus
56fc8248b5648e000fac9980,qt19y34mmz,"Mediated Recall_Prolific",1,1,2023-03-07T21:04:09+00:00,101.38807678223,1,versionA_stim.csv,ReadVersion.csv,Read,Read1,,,,,,0,Instruct,-,5,"In this section, you will be presented with a series of word pairs. Please study each word pair! Your memory will be tested!",Initial_Instruct,Instruct1,100945,,,-1,-1,,,,0.966
56fc8248b5648e000fac9980,qt19y34mmz,"Mediated Recall_Prolific",1,2,2023-03-07T21:04:11+00:00,2.6001319885254,1,versionA_stim.csv,ReadVersion.csv,Read,Read1,,,,,,0,Instruct,User,-,"You will now begin. Press Enter when you are ready to begin.",,Instruct16,2310,,,-1,-1,,,,1
56fc8248b5648e000fac9980,qt19y34mmz,"Mediated Recall_Prolific",1,3,2023-03-07T21:04:14+00:00,2.3615050315857,1,versionA_stim.csv,ReadVersion.csv,Read,Read1,SPACE,JAM,BUFFER1,Buffer,5,4,Study,User,-,,Study/JOL,BUFFER,2092,,,-1,-1,,,,1
56fc8248b5648e000fac9980,qt19y34mmz,"Mediated Recall_Prolific",1,4,2023-03-07T21:04:15+00:00,1.6610431671143,1,versionA_stim.csv,ReadVersion.csv,Read,Read1,PITCHER,CATCHER,BUFFER1,Buffer,2,3,Study,User,-,,Study/JOL,BUFFER,1377,,,-1,-1,,,,1
56fc8248b5648e000fac9980,qt19y34mmz,"Mediated Recall_Prolific",1,5,2023-03-07T21:04:17+00:00,1.4139640331268,1,versionA_stim.csv,ReadVersion.csv,Read,Read1,PEANUT,BUTTER,BUFFER1,Buffer,3,2,Study,User,-,,Study/JOL,BUFFER,1162,,,-1,-1,,,,1
56fc8248b5648e000fac9980,qt19y34mmz,"Mediated Recall_Prolific",1,6,2023-03-07T21:04:18+00:00,1.2673628330231,1,versionA_stim.csv,ReadVersion.csv,Read,Read1,SCARE,FRIGHT,BUFFER1,Buffer,4,5,Study,User,-,,Study/JOL,BUFFER,1007,,,-1,-1,,,,1
56fc8248b5648e000fac9980,qt19y34mmz,"Mediated Recall_Prolific",1,7,2023-03-07T21:04:19+00:00,1.1783490180969,1,versionA_stim.csv,ReadVersion.csv,Read,Read1,TREES,GREEN,BUFFER1,Buffer,1,6,Study,User,-,,Study/JOL,BUFFER,923,,,-1,-1,,,,1
56fc8248b5648e000fac9980,qt19y34mmz,"Mediated Recall_Prolific",1,8,2023-03-07T21:04:21+00:00,1.2322800159454,1,versionA_stim.csv,ReadVersion.csv,Read,Read1,AFFECTION,LOVE,Study1,F,31,14,Study,User,-,,Study/JOL,"Study Phase",971,,,-1,-1,,,,1
56fc8248b5648e000fac9980,qt19y34mmz,"Mediated Recall_Prolific",1,9,2023-03-07T21:04:22+00:00,1.0558819770813,1,versionA_stim.csv,ReadVersion.csv,Read,Read1,BIRTHDAY,PIE,Study1,M,9,20,Study,User,-,,Study/JOL,"Study Phase",774,,,-1,-1,,,,1
56fc8248b5648e000fac9980,qt19y34mmz,"Mediated Recall_Prolific",1,10,2023-03-07T21:04:23+00:00,1.2606799602509,1,versionA_stim.csv,ReadVersion.csv,Read,Read1,GIVE,STEAK,Study1,U,38,46,Study,User,-,,Study/JOL,"Study Phase",1012,,,-1,-1,,,,1
56fc8248b5648e000fac9980,qt19y34mmz,"Mediated Recall_Prolific",1,11,2023-03-07T21:04:24+00:00,1.3167810440063,1,versionA_stim.csv,ReadVersion.csv,Read,Read1,MULE,DONKEY,Study1,F,24,43,Study,User,-,,Study/JOL,"Study Phase",1065,,,-1,-1,,,,1
56fc8248b5648e000fac9980,qt19y34mmz,"Mediated Recall_Prolific",1,12,2023-03-07T21:04:26+00:00,1.8122580051422,1,versionA_stim.csv,ReadVersion.csv,Read,Read1,TEMPERATURE,MORNING,Study1,U,48,15,Study,User,-,,Study/JOL,"Study Phase",1568,,,-1,-1,,,,1
56fc8248b5648e000fac9980,qt19y34mmz,"Mediated Recall_Prolific",1,13,2023-03-07T21:04:28+00:00,1.6481509208679,1,versionA_stim.csv,ReadVersion.csv,Read,Read1,FUZZY,BANG,Study1,U,50,21,Study,User,-,,Study/JOL,"Study Phase",1395,,,-1,-1,,,,1
56fc8248b5648e000fac9980,qt19y34mmz,"Mediated Recall_Prolific",1,14,2023-03-07T21:04:29+00:00,1.5647401809692,1,versionA_stim.csv,ReadVersion.csv,Read,Read1,SOON,BELT,Study1,U,46,24,Study,User,-,,Study/JOL,"Study Phase",1318,,,-1,-1,,,,1
56fc8248b5648e000fac9980,qt19y34mmz,"Mediated Recall_Prolific",1,15,2023-03-07T21:04:31+00:00,1.6772768497467,1,versionA_stim.csv,ReadVersion.csv,Read,Read1,SCALP,HEAD,Study1,F,23,8,Study,User,-,,Study/JOL,"Study Phase",1417,,,-1,-1,,,,1
56fc8248b5648e000fac9980,qt19y34mmz,"Mediated Recall_Prolific",1,16,2023-03-07T21:04:32+00:00,1.4769601821899,1,versionA_stim.csv,ReadVersion.csv,Read,Read1,TUNA,FISH,Study1,F,35,9,Study,User,-,,Study/JOL,"Study Phase",1163,,,-1,-1,,,,1
56fc8248b5648e000fac9980,qt19y34mmz,"Mediated Recall_Prolific",1,17,2023-03-07T21:04:34+00:00,1.6330788135529,1,versionA_stim.csv,ReadVersion.csv,Read,Read1,CRY,BOTTLE,Study1,M,16,50,Study,User,-,,Study/JOL,"Study Phase",1391,,,-1,-1,,,,1
56fc8248b5648e000fac9980,qt19y34mmz,"Mediated Recall_Prolific",1,18,2023-03-07T21:04:36+00:00,1.8970999717712,1,versionA_stim.csv,ReadVersion.csv,Read,Read1,ROUGH,SILK,Study1,M,10,37,Study,User,-,,Study/JOL,"Study Phase",1632,,,-1,-1,,,,1
56fc8248b5648e000fac9980,qt19y34mmz,"Mediated Recall_Prolific",1,19,2023-03-07T21:04:38+00:00,2.2018551826477,1,versionA_stim.csv,ReadVersion.csv,Read,Read1,KEYS,ROD,Study1,U,45,47,Study,User,-,,Study/JOL,"Study Phase",1956,,,-1,-1,,,,1
56fc8248b5648e000fac9980,qt19y34mmz,"Mediated Recall_Prolific",1,20,2023-03-07T21:04:40+00:00,2.2890858650208,1,versionA_stim.csv,ReadVersion.csv,Read,Read1,HORSE,WHEEL,Study1,M,14,19,Study,User,-,,Study/JOL,"Study Phase",2039,,,-1,-1,,,,1
56fc8248b5648e000fac9980,qt19y34mmz,"Mediated Recall_Prolific",1,21,2023-03-07T21:04:43+00:00,3.0370981693268,1,versionA_stim.csv,ReadVersion.csv,Read,Read1,SHELL,SHAKE,Study1,U,43,51,Study,User,-,,Study/JOL,"Study Phase",2798,,,-1,-1,,,,1
56fc8248b5648e000fac9980,qt19y34mmz,"Mediated Recall_Prolific",1,22,2023-03-07T21:04:47+00:00,4.0843548774719,1,versionA_stim.csv,ReadVersion.csv,Read,Read1,WORD,SENTENCE,Study1,F,27,49,Study,User,-,,Study/JOL,"Study Phase",3835,,,-1,-1,,,,1
56fc8248b5648e000fac9980,qt19y34mmz,"Mediated Recall_Prolific",1,23,2023-03-07T21:04:49+00:00,1.5958330631256,1,versionA_stim.csv,ReadVersion.csv,Read,Read1,MEAT,KEYS,Study1,U,41,38,Study,User,-,,Study/JOL,"Study Phase",1332,,,-1,-1,,,,1
56fc8248b5648e000fac9980,qt19y34mmz,"Mediated Recall_Prolific",1,24,2023-03-07T21:04:51+00:00,1.8949530124664,1,versionA_stim.csv,ReadVersion.csv,Read,Read1,CRACKLE,ELECTION,Study1,U,39,13,Study,User,-,,Study/JOL,"Study Phase",1633,,,-1,-1,,,,1
56fc8248b5648e000fac9980,qt19y34mmz,"Mediated Recall_Prolific",1,25,2023-03-07T21:04:53+00:00,1.7604348659515,1,versionA_stim.csv,ReadVersion.csv,Read,Read1,HARD,COTTON,Study1,M,20,17,Study,User,-,,Study/JOL,"Study Phase",1506,,,-1,-1,,,,1
56fc8248b5648e000fac9980,qt19y34mmz,"Mediated Recall_Prolific",1,26,2023-03-07T21:04:54+00:00,1.465439081192,1,versionA_stim.csv,ReadVersion.csv,Read,Read1,NAP,SLEEP,Study1,F,29,7,Study,User,-,,Study/JOL,"Study Phase",1191,,,-1,-1,,,,1
56fc8248b5648e000fac9980,qt19y34mmz,"Mediated Recall_Prolific",1,27,2023-03-07T21:04:56+00:00,1.326052904129,1,versionA_stim.csv,ReadVersion.csv,Read,Read1,WEDDING,FINGER,Study1,M,17,31,Study,User,-,,Study/JOL,"Study Phase",1075,,,-1,-1,,,,1
56fc8248b5648e000fac9980,qt19y34mmz,"Mediated Recall_Prolific",1,28,2023-03-07T21:04:57+00:00,1.9338979721069,1,versionA_stim.csv,ReadVersion.csv,Read,Read1,STRETCH,CLOTH,Study1,U,37,27,Study,User,-,,Study/JOL,"Study Phase",1703,,,-1,-1,,,,1
56fc8248b5648e000fac9980,qt19y34mmz,"Mediated Recall_Prolific",1,29,2023-03-07T21:05:00+00:00,2.0838801860809,1,versionA_stim.csv,ReadVersion.csv,Read,Read1,BAT,BOUNCE,Study1,M,12,23,Study,User,-,,Study/JOL,"Study Phase",1833,,,-1,-1,,,,1
56fc8248b5648e000fac9980,qt19y34mmz,"Mediated Recall_Prolific",1,30,2023-03-07T21:05:01+00:00,1.5190699100494,1,versionA_stim.csv,ReadVersion.csv,Read,Read1,DAY,DARK,Study1,M,18,33,Study,User,-,,Study/JOL,"Study Phase",1268,,,-1,-1,,,,1
56fc8248b5648e000fac9980,qt19y34mmz,"Mediated Recall_Prolific",1,31,2023-03-07T21:05:04+00:00,2.5562689304352,1,versionA_stim.csv,ReadVersion.csv,Read,Read1,LISTEN,FICTION,Study1,U,44,28,Study,User,-,,Study/JOL,"Study Phase",2301,,,-1,-1,,,,1
56fc8248b5648e000fac9980,qt19y34mmz,"Mediated Recall_Prolific",1,32,2023-03-07T21:05:06+00:00,2.2505400180817,1,versionA_stim.csv,ReadVersion.csv,Read,Read1,MULE,DONKEY,Study1,F,30,29,Study,User,-,,Study/JOL,"Study Phase",1985,,,-1,-1,,,,1
56fc8248b5648e000fac9980,qt19y34mmz,"Mediated Recall_Prolific",1,33,2023-03-07T21:05:07+00:00,1.2883629798889,1,versionA_stim.csv,ReadVersion.csv,Read,Read1,LION,STRIPES,Study1,M,6,22,Study,User,-,,Study/JOL,"Study Phase",1002,,,-1,-1,,,,1
56fc8248b5648e000fac9980,qt19y34mmz,"Mediated Recall_Prolific",1,34,2023-03-07T21:05:09+00:00,1.4298820495605,1,versionA_stim.csv,ReadVersion.csv,Read,Read1,SIGN,TICK,Study1,U,47,26,Study,User,-,,Study/JOL,"Study Phase",1206,,,-1,-1,,,,1
56fc8248b5648e000fac9980,qt19y34mmz,"Mediated Recall_Prolific",1,35,2023-03-07T21:05:10+00:00,1.3389520645142,1,versionA_stim.csv,ReadVersion.csv,Read,Read1,ORCHID,FLOWER,Study1,F,34,40,Study,User,-,,Study/JOL,"Study Phase",1108,,,-1,-1,,,,1
56fc8248b5648e000fac9980,qt19y34mmz,"Mediated Recall_Prolific",1,36,2023-03-07T21:05:14+00:00,4.0742199420929,1,versionA_stim.csv,ReadVersion.csv,Read,Read1,TREE,SYRUP,Study1,M,11,44,Study,User,-,,Study/JOL,"Study Phase",3819,,,-1,-1,,,,1
56fc8248b5648e000fac9980,qt19y34mmz,"Mediated Recall_Prolific",1,37,2023-03-07T21:05:16+00:00,1.7728719711304,1,versionA_stim.csv,ReadVersion.csv,Read,Read1,WAR,QUIET,Study1,M,8,34,Study,User,-,,Study/JOL,"Study Phase",1509,,,-1,-1,,,,1
56fc8248b5648e000fac9980,qt19y34mmz,"Mediated Recall_Prolific",1,38,2023-03-07T21:05:17+00:00,1.367161989212,1,versionA_stim.csv,ReadVersion.csv,Read,Read1,SIP,DRINK,Study1,F,32,35,Study,User,-,,Study/JOL,"Study Phase",1128,,,-1,-1,,,,1
56fc8248b5648e000fac9980,qt19y34mmz,"Mediated Recall_Prolific",1,39,2023-03-07T21:05:19+00:00,1.5423121452332,1,versionA_stim.csv,ReadVersion.csv,Read,Read1,BEACH,BOX,Study1,M,7,36,Study,User,-,,Study/JOL,"Study Phase",1285,,,-1,-1,,,,1
56fc8248b5648e000fac9980,qt19y34mmz,"Mediated Recall_Prolific",1,40,2023-03-07T21:05:20+00:00,1.3732738494873,1,versionA_stim.csv,ReadVersion.csv,Read,Read1,CREDIT,CARD,Study1,F,33,45,Study,User,-,,Study/JOL,"Study Phase",1136,,,-1,-1,,,,1
56fc8248b5648e000fac9980,qt19y34mmz,"Mediated Recall_Prolific",1,41,2023-03-07T21:05:24+00:00,4.1742980480194,1,versionA_stim.csv,ReadVersion.csv,Read,Read1,TOOTH,HAIR,Study1,M,19,39,Study,User,-,,Study/JOL,"Study Phase",3931,,,-1,-1,,,,1
56fc8248b5648e000fac9980,qt19y34mmz,"Mediated Recall_Prolific",1,42,2023-03-07T21:05:27+00:00,2.7761931419373,1,versionA_stim.csv,ReadVersion.csv,Read,Read1,ROOT,PLANT,Study1,F,25,10,Study,User,-,,Study/JOL,"Study Phase",2520,,,-1,-1,,,,1
56fc8248b5648e000fac9980,qt19y34mmz,"Mediated Recall_Prolific",1,43,2023-03-07T21:05:28+00:00,1.4457838535309,1,versionA_stim.csv,ReadVersion.csv,Read,Read1,CIRCLE,DANCE,Study1,M,13,48,Study,User,-,,Study/JOL,"Study Phase",1217,,,-1,-1,,,,1
56fc8248b5648e000fac9980,qt19y34mmz,"Mediated Recall_Prolific",1,44,2023-03-07T21:05:30+00:00,1.3966989517212,1,versionA_stim.csv,ReadVersion.csv,Read,Read1,LITTER,TRASH,Study1,F,21,25,Study,User,-,,Study/JOL,"Study Phase",1148,,,-1,-1,,,,1
56fc8248b5648e000fac9980,qt19y34mmz,"Mediated Recall_Prolific",1,45,2023-03-07T21:05:31+00:00,1.1595940589905,1,versionA_stim.csv,ReadVersion.csv,Read,Read1,WAGE,MONEY,Study1,F,22,18,Study,User,-,,Study/JOL,"Study Phase",911,,,-1,-1,,,,1
56fc8248b5648e000fac9980,qt19y34mmz,"Mediated Recall_Prolific",1,46,2023-03-07T21:05:32+00:00,1.225704908371,1,versionA_stim.csv,ReadVersion.csv,Read,Read1,VEHICLE,CHARM,Study1,U,40,16,Study,User,-,,Study/JOL,"Study Phase",960,,,-1,-1,,,,1
56fc8248b5648e000fac9980,qt19y34mmz,"Mediated Recall_Prolific",1,47,2023-03-07T21:05:34+00:00,2.1870801448822,1,versionA_stim.csv,ReadVersion.csv,Read,Read1,CEILING,CARPET,Study1,M,15,12,Study,User,-,,Study/JOL,"Study Phase",1924,,,-1,-1,,,,1
56fc8248b5648e000fac9980,qt19y34mmz,"Mediated Recall_Prolific",1,48,2023-03-07T21:05:36+00:00,1.4091758728027,1,versionA_stim.csv,ReadVersion.csv,Read,Read1,MIRROR,MAROON,Study1,U,36,42,Study,User,-,,Study/JOL,"Study Phase",1123,,,-1,-1,,,,1
56fc8248b5648e000fac9980,qt19y34mmz,"Mediated Recall_Prolific",1,49,2023-03-07T21:05:37+00:00,1.0433239936829,1,versionA_stim.csv,ReadVersion.csv,Read,Read1,CAKE,HAND,Study1,U,49,32,Study,User,-,,Study/JOL,"Study Phase",764,,,-1,-1,,,,1
56fc8248b5648e000fac9980,qt19y34mmz,"Mediated Recall_Prolific",1,50,2023-03-07T21:05:38+00:00,1.3036770820618,1,versionA_stim.csv,ReadVersion.csv,Read,Read1,HYGIENE,CLEAN,Study1,F,28,41,Study,User,-,,Study/JOL,"Study Phase",1072,,,-1,-1,,,,1
56fc8248b5648e000fac9980,qt19y34mmz,"Mediated Recall_Prolific",1,51,2023-03-07T21:05:40+00:00,1.5311830043793,1,versionA_stim.csv,ReadVersion.csv,Read,Read1,MAZE,PHONE,Study1,U,42,30,Study,User,-,,Study/JOL,"Study Phase",1295,,,-1,-1,,,,1
56fc8248b5648e000fac9980,qt19y34mmz,"Mediated Recall_Prolific",1,52,2023-03-07T21:05:42+00:00,2.0651450157166,1,versionA_stim.csv,ReadVersion.csv,Read,Read1,SWAN,BIRD,Study1,F,26,11,Study,User,-,,Study/JOL,"Study Phase",1801,,,-1,-1,,,,1
56fc8248b5648e000fac9980,qt19y34mmz,"Mediated Recall_Prolific",1,53,2023-03-07T21:05:45+00:00,3.0811259746552,1,versionA_stim.csv,ReadVersion.csv,Read,Read1,MALT,CHOCOLATE,BUFFER2,Buffer,53,55,Study,User,-,,Study/JOL,BUFFER2,2789,,,-1,-1,,,,1
56fc8248b5648e000fac9980,qt19y34mmz,"Mediated Recall_Prolific",1,54,2023-03-07T21:05:47+00:00,2.1230299472809,1,versionA_stim.csv,ReadVersion.csv,Read,Read1,MOON,SPACE,BUFFER2,Buffer,54,54,Study,User,-,,Study/JOL,BUFFER2,1820,,,-1,-1,,,,1
56fc8248b5648e000fac9980,qt19y34mmz,"Mediated Recall_Prolific",1,55,2023-03-07T21:05:48+00:00,1.4027509689331,1,versionA_stim.csv,ReadVersion.csv,Read,Read1,TOOL,SHED,BUFFER3,Buffer,58,59,Study,User,-,,Study/JOL,BUFFER2,1151,,,-1,-1,,,,1
56fc8248b5648e000fac9980,qt19y34mmz,"Mediated Recall_Prolific",1,56,2023-03-07T21:05:50+00:00,1.3359620571136,1,versionA_stim.csv,ReadVersion.csv,Read,Read1,ICE,FROZEN,BUFFER4,Buffer,109,107,Study,User,-,,Study/JOL,BUFFER2,1108,,,-1,-1,,,,1
56fc8248b5648e000fac9980,qt19y34mmz,"Mediated Recall_Prolific",1,57,2023-03-07T21:05:55+00:00,4.9373559951782,1,versionA_stim.csv,ReadVersion.csv,Read,Read1,GEESE,GOOSE,BUFFER2,Buffer,51,53,Study,User,-,,Study/JOL,BUFFER2,4681,,,-1,-1,,,,1
56fc8248b5648e000fac9980,qt19y34mmz,"Mediated Recall_Prolific",1,58,2023-03-07T21:05:59+00:00,3.9352469444275,1,versionA_stim.csv,ReadVersion.csv,Read,Read1,,,,,,0,Instruct,User,-,"You have completed this section. Please press Enter.",Filler_Instruction,Instruct2,3652,,,-1,-1,,,,1
56fc8248b5648e000fac9980,qt19y34mmz,"Mediated Recall_Prolific",1,59,2023-03-07T21:07:59+00:00,120.44384002686,1,versionA_stim.csv,ReadVersion.csv,Read,Read1,,,,,,0,FreeRecall,120,120,"Please list the 50 US states in alphabetical order. The task will automatically advance to the next screen after two minutes.",,Filler1,120001,"Alabama Alaska Arizona Arkansas California Colorado Delaware Florida Georgia Hawaii Idaho Iowa ",0,10884,119087,0,0,,1
56fc8248b5648e000fac9980,qt19y34mmz,"Mediated Recall_Prolific",1,60,2023-03-07T21:08:11+00:00,11.549431085587,1,versionA_stim.csv,ReadVersion.csv,Read,Read1,,,,,,0,Instruct,-,10,"You will now be presented with the first word from each of the previously studied item pairs. Please type the missing word. If you do not know the word, you may guess or press Enter to skip forward to the next pair.",,Instruct3,11239,,,-1,-1,,,,1
56fc8248b5648e000fac9980,qt19y34mmz,"Mediated Recall_Prolific",1,61,2023-03-07T21:08:16+00:00,5.0050559043884,1,versionA_stim.csv,ReadVersion.csv,Read,Read1,LISTEN,FICTION,Study1,U,44,28,Test,User,-,,Recall,Recall1,4720,Hear,0,2818,4303,0,0,,1
56fc8248b5648e000fac9980,qt19y34mmz,"Mediated Recall_Prolific",1,62,2023-03-07T21:08:19+00:00,3.2065870761871,1,versionA_stim.csv,ReadVersion.csv,Read,Read1,TREE,SYRUP,Study1,M,11,44,Test,User,-,,Recall,Recall1,2947,leaf,0,2244,2670,0,0,,1
56fc8248b5648e000fac9980,qt19y34mmz,"Mediated Recall_Prolific",1,63,2023-03-07T21:08:23+00:00,3.9400670528412,1,versionA_stim.csv,ReadVersion.csv,Read,Read1,WEDDING,FINGER,Study1,M,17,31,Test,User,-,,Recall,Recall1,3666,planner,46.153846153846,2563,3508,0,0,,1
56fc8248b5648e000fac9980,qt19y34mmz,"Mediated Recall_Prolific",1,64,2023-03-07T21:08:40+00:00,17.755987882614,1,versionA_stim.csv,ReadVersion.csv,Read,Read1,SHELL,SHAKE,Study1,U,43,51,Test,User,-,,Recall,Recall1,17363,,0,-1,-1,0,0,,1
56fc8248b5648e000fac9980,qt19y34mmz,"Mediated Recall_Prolific",1,65,2023-03-07T21:08:51+00:00,10.849702119827,1,versionA_stim.csv,ReadVersion.csv,Read,Read1,KEYS,ROD,Study1,U,45,47,Test,User,-,,Recall,Recall1,10508,money,25,1874,9583,0,0,,1
56fc8248b5648e000fac9980,qt19y34mmz,"Mediated Recall_Prolific",1,66,2023-03-07T21:08:55+00:00,3.6691899299622,1,versionA_stim.csv,ReadVersion.csv,Read,Read1,MULE,DONKEY,Study1,F,24,43,Test,User,-,,Recall,Recall1,3422,donkey,100,1949,2975,1,1,,1
56fc8248b5648e000fac9980,qt19y34mmz,"Mediated Recall_Prolific",1,67,2023-03-07T21:08:58+00:00,3.3114490509033,1,versionA_stim.csv,ReadVersion.csv,Read,Read1,WAR,QUIET,Study1,M,8,34,Test,User,-,,Recall,Recall1,3056,quiet,100,2208,2925,1,1,,1
56fc8248b5648e000fac9980,qt19y34mmz,"Mediated Recall_Prolific",1,68,2023-03-07T21:09:02+00:00,3.7471730709076,1,versionA_stim.csv,ReadVersion.csv,Read,Read1,SOON,BELT,Study1,U,46,24,Test,User,-,,Recall,Recall1,3461,later,44.444444444444,2601,3276,0,0,,1
56fc8248b5648e000fac9980,qt19y34mmz,"Mediated Recall_Prolific",1,69,2023-03-07T21:09:09+00:00,6.7126858234406,1,versionA_stim.csv,ReadVersion.csv,Read,Read1,ROUGH,SILK,Study1,M,10,37,Test,User,-,,Recall,Recall1,6423,day,0,5034,5628,0,0,,1
56fc8248b5648e000fac9980,qt19y34mmz,"Mediated Recall_Prolific",1,70,2023-03-07T21:09:39+00:00,30.302536010742,1,versionA_stim.csv,ReadVersion.csv,Read,Read1,CIRCLE,DANCE,Study1,M,13,48,Test,User,-,,Recall,Recall1,29915,square,36.363636363636,26564,27590,0,0,,1
56fc8248b5648e000fac9980,qt19y34mmz,"Mediated Recall_Prolific",1,71,2023-03-07T21:09:43+00:00,4.3057510852814,1,versionA_stim.csv,ReadVersion.csv,Read,Read1,CRACKLE,ELECTION,Study1,U,39,13,Test,User,-,,Recall,Recall1,4026,glass,15.384615384615,3240,3823,0,0,,1
56fc8248b5648e000fac9980,qt19y34mmz,"Mediated Recall_Prolific",1,72,2023-03-07T21:09:46+00:00,2.7149410247803,1,versionA_stim.csv,ReadVersion.csv,Read,Read1,CRY,BOTTLE,Study1,M,16,50,Test,User,-,,Recall,Recall1,2479,moan,20,1908,2354,0,0,,1
56fc8248b5648e000fac9980,qt19y34mmz,"Mediated Recall_Prolific",1,73,2023-03-07T21:09:52+00:00,5.9430680274963,1,versionA_stim.csv,ReadVersion.csv,Read,Read1,ROOT,PLANT,Study1,F,25,10,Test,User,-,,Recall,Recall1,5690,plants,90.909090909091,2732,4776,0,1,,1
56fc8248b5648e000fac9980,qt19y34mmz,"Mediated Recall_Prolific",1,74,2023-03-07T21:09:56+00:00,3.5019509792328,1,versionA_stim.csv,ReadVersion.csv,Read,Read1,CREDIT,CARD,Study1,F,33,45,Test,User,-,,Recall,Recall1,3228,debit,22.222222222222,1991,3069,0,0,,1
56fc8248b5648e000fac9980,qt19y34mmz,"Mediated Recall_Prolific",1,75,2023-03-07T21:10:03+00:00,7.925008058548,1,versionA_stim.csv,ReadVersion.csv,Read,Read1,CAKE,HAND,Study1,U,49,32,Test,User,-,,Recall,Recall1,7653,layer,22.222222222222,6939,7494,0,0,,1
56fc8248b5648e000fac9980,qt19y34mmz,"Mediated Recall_Prolific",1,76,2023-03-07T21:10:08+00:00,4.0802500247955,1,versionA_stim.csv,ReadVersion.csv,Read,Read1,BEACH,BOX,Study1,M,7,36,Test,User,-,,Recall,Recall1,3774,shell,0,2771,3476,0,0,,1
56fc8248b5648e000fac9980,qt19y34mmz,"Mediated Recall_Prolific",1,77,2023-03-07T21:10:15+00:00,7.894476890564,1,versionA_stim.csv,ReadVersion.csv,Read,Read1,MIRROR,MAROON,Study1,U,36,42,Test,User,-,,Recall,Recall1,7618,glass,18.181818181818,6165,7423,0,0,,1
56fc8248b5648e000fac9980,qt19y34mmz,"Mediated Recall_Prolific",1,78,2023-03-07T21:10:20+00:00,4.2535400390625,1,versionA_stim.csv,ReadVersion.csv,Read,Read1,STRETCH,CLOTH,Study1,U,37,27,Test,User,-,,Recall,Recall1,3997,reach,40,2849,3846,0,0,,1
56fc8248b5648e000fac9980,qt19y34mmz,"Mediated Recall_Prolific",1,79,2023-03-07T21:10:30+00:00,10.317899942398,1,versionA_stim.csv,ReadVersion.csv,Read,Read1,BIRTHDAY,PIE,Study1,M,9,20,Test,User,-,,Recall,Recall1,10063,cake,28.571428571429,7768,9935,0,0,,1
56fc8248b5648e000fac9980,qt19y34mmz,"Mediated Recall_Prolific",1,80,2023-03-07T21:10:34+00:00,3.8960618972778,1,versionA_stim.csv,ReadVersion.csv,Read,Read1,MULE,DONKEY,Study1,F,30,29,Test,User,-,,Recall,Recall1,3662,donkey,100,2602,3524,1,1,,1
56fc8248b5648e000fac9980,qt19y34mmz,"Mediated Recall_Prolific",1,81,2023-03-07T21:10:38+00:00,4.0345151424408,1,versionA_stim.csv,ReadVersion.csv,Read,Read1,LION,STRIPES,Study1,M,6,22,Test,User,-,,Recall,Recall1,3726,cub,0,3053,3502,0,0,,1
56fc8248b5648e000fac9980,qt19y34mmz,"Mediated Recall_Prolific",1,82,2023-03-07T21:10:42+00:00,4.017196893692,1,versionA_stim.csv,ReadVersion.csv,Read,Read1,DAY,DARK,Study1,M,18,33,Test,User,-,,Recall,Recall1,3778,night,0,2641,3434,0,0,,1
56fc8248b5648e000fac9980,qt19y34mmz,"Mediated Recall_Prolific",1,83,2023-03-07T21:10:47+00:00,4.641988992691,1,versionA_stim.csv,ReadVersion.csv,Read,Read1,SIGN,TICK,Study1,U,47,26,Test,User,-,,Recall,Recall1,4406,post,25,2113,3145,0,0,,1
56fc8248b5648e000fac9980,qt19y34mmz,"Mediated Recall_Prolific",1,84,2023-03-07T21:10:54+00:00,7.4478430747986,1,versionA_stim.csv,ReadVersion.csv,Read,Read1,WAGE,MONEY,Study1,F,22,18,Test,User,-,,Recall,Recall1,7012,war,0,5731,6041,0,0,,1
56fc8248b5648e000fac9980,qt19y34mmz,"Mediated Recall_Prolific",1,85,2023-03-07T21:10:58+00:00,3.8797850608826,1,versionA_stim.csv,ReadVersion.csv,Read,Read1,CEILING,CARPET,Study1,M,15,12,Test,User,-,,Recall,Recall1,3207,fan,22.222222222222,2361,2810,0,0,,1
56fc8248b5648e000fac9980,qt19y34mmz,"Mediated Recall_Prolific",1,86,2023-03-07T21:11:01+00:00,3.4637899398804,1,versionA_stim.csv,ReadVersion.csv,Read,Read1,BAT,BOUNCE,Study1,M,12,23,Test,User,-,,Recall,Recall1,3201,ball,20,1769,2761,0,0,,1
56fc8248b5648e000fac9980,qt19y34mmz,"Mediated Recall_Prolific",1,87,2023-03-07T21:11:10+00:00,8.3313710689545,1,versionA_stim.csv,ReadVersion.csv,Read,Read1,LITTER,TRASH,Study1,F,21,25,Test,User,-,,Recall,Recall1,8073,trash,100,3289,7628,1,1,,1
56fc8248b5648e000fac9980,qt19y34mmz,"Mediated Recall_Prolific",1,88,2023-03-07T21:11:14+00:00,4.3429000377655,1,versionA_stim.csv,ReadVersion.csv,Read,Read1,AFFECTION,LOVE,Study1,F,31,14,Test,User,-,,Recall,Recall1,4043,hug,0,3503,3773,0,0,,1
56fc8248b5648e000fac9980,qt19y34mmz,"Mediated Recall_Prolific",1,89,2023-03-07T21:11:17+00:00,3.4095768928528,1,versionA_stim.csv,ReadVersion.csv,Read,Read1,GIVE,STEAK,Study1,U,38,46,Test,User,-,,Recall,Recall1,3134,hug,0,2339,2842,0,0,,1
56fc8248b5648e000fac9980,qt19y34mmz,"Mediated Recall_Prolific",1,90,2023-03-07T21:11:27+00:00,9.3168709278107,1,versionA_stim.csv,ReadVersion.csv,Read,Read1,WORD,SENTENCE,Study1,F,27,49,Test,User,-,,Recall,Recall1,9062,phrase,28.571428571429,6842,8655,0,0,,1
56fc8248b5648e000fac9980,qt19y34mmz,"Mediated Recall_Prolific",1,91,2023-03-07T21:11:32+00:00,5.5478391647339,1,versionA_stim.csv,ReadVersion.csv,Read,Read1,HYGIENE,CLEAN,Study1,F,28,41,Test,User,-,,Recall,Recall1,5294,dentist,33.333333333333,2332,4860,0,0,,1
56fc8248b5648e000fac9980,qt19y34mmz,"Mediated Recall_Prolific",1,92,2023-03-07T21:11:38+00:00,5.1717529296875,1,versionA_stim.csv,ReadVersion.csv,Read,Read1,SWAN,BIRD,Study1,F,26,11,Test,User,-,,Recall,Recall1,4912,bird,100,3172,4111,1,1,,1
56fc8248b5648e000fac9980,qt19y34mmz,"Mediated Recall_Prolific",1,93,2023-03-07T21:11:44+00:00,6.9094460010529,1,versionA_stim.csv,ReadVersion.csv,Read,Read1,MEAT,KEYS,Study1,U,41,38,Test,User,-,,Recall,Recall1,6644,treat,22.222222222222,3272,4380,0,0,,1
56fc8248b5648e000fac9980,qt19y34mmz,"Mediated Recall_Prolific",1,94,2023-03-07T21:11:50+00:00,5.5947279930115,1,versionA_stim.csv,ReadVersion.csv,Read,Read1,NAP,SLEEP,Study1,F,29,7,Test,User,-,,Recall,Recall1,5274,clap,44.444444444444,2687,3973,0,0,,1
56fc8248b5648e000fac9980,qt19y34mmz,"Mediated Recall_Prolific",1,95,2023-03-07T21:12:27+00:00,36.75604891777,1,versionA_stim.csv,ReadVersion.csv,Read,Read1,VEHICLE,CHARM,Study1,U,40,16,Test,User,-,,Recall,Recall1,36329,truck,20,34039,35582,0,0,,1
56fc8248b5648e000fac9980,qt19y34mmz,"Mediated Recall_Prolific",1,96,2023-03-07T21:12:32+00:00,4.8355159759521,1,versionA_stim.csv,ReadVersion.csv,Read,Read1,ORCHID,FLOWER,Study1,F,34,40,Test,User,-,,Recall,Recall1,4543,flower,100,2289,3506,1,1,,1
56fc8248b5648e000fac9980,qt19y34mmz,"Mediated Recall_Prolific",1,97,2023-03-07T21:13:20+00:00,48.748323202133,1,versionA_stim.csv,ReadVersion.csv,Read,Read1,HORSE,WHEEL,Study1,M,14,19,Test,User,-,,Recall,Recall1,48333,cow,25,46739,47467,0,0,,1
56fc8248b5648e000fac9980,qt19y34mmz,"Mediated Recall_Prolific",1,98,2023-03-07T21:13:25+00:00,4.986564874649,1,versionA_stim.csv,ReadVersion.csv,Read,Read1,HARD,COTTON,Study1,M,20,17,Test,User,-,,Recall,Recall1,4700,soda,20,2919,4204,0,0,,1
56fc8248b5648e000fac9980,qt19y34mmz,"Mediated Recall_Prolific",1,99,2023-03-07T21:13:31+00:00,5.5296270847321,1,versionA_stim.csv,ReadVersion.csv,Read,Read1,SIP,DRINK,Study1,F,32,35,Test,User,-,,Recall,Recall1,5258,straw,20,3378,4522,0,0,,1
56fc8248b5648e000fac9980,qt19y34mmz,"Mediated Recall_Prolific",1,100,2023-03-07T21:13:37+00:00,5.9879949092865,1,versionA_stim.csv,ReadVersion.csv,Read,Read1,TUNA,FISH,Study1,F,35,9,Test,User,-,,Recall,Recall1,5708,fish,100,1375,4985,1,1,,1
56fc8248b5648e000fac9980,qt19y34mmz,"Mediated Recall_Prolific",1,101,2023-03-07T21:13:40+00:00,3.2373850345612,1,versionA_stim.csv,ReadVersion.csv,Read,Read1,TOOTH,HAIR,Study1,M,19,39,Test,User,-,,Recall,Recall1,2980,decay,22.222222222222,1458,2556,0,0,,1
56fc8248b5648e000fac9980,qt19y34mmz,"Mediated Recall_Prolific",1,102,2023-03-07T21:13:44+00:00,4.0770790576935,1,versionA_stim.csv,ReadVersion.csv,Read,Read1,SCALP,HEAD,Study1,F,23,8,Test,User,-,,Recall,Recall1,3818," hair",50,48,3254,0,0,,1
56fc8248b5648e000fac9980,qt19y34mmz,"Mediated Recall_Prolific",1,103,2023-03-07T21:13:50+00:00,5.3891990184784,1,versionA_stim.csv,ReadVersion.csv,Read,Read1,FUZZY,BANG,Study1,U,50,21,Test,User,-,,Recall,Recall1,5150,dice,0,3873,4813,0,0,,1
56fc8248b5648e000fac9980,qt19y34mmz,"Mediated Recall_Prolific",1,104,2023-03-07T21:13:54+00:00,4.9273579120636,1,versionA_stim.csv,ReadVersion.csv,Read,Read1,MAZE,PHONE,Study1,U,42,30,Test,User,-,,Recall,Recall1,4664,lost,22.222222222222,3233,4187,0,0,,1
56fc8248b5648e000fac9980,qt19y34mmz,"Mediated Recall_Prolific",1,105,2023-03-07T21:14:00+00:00,5.4506208896637,1,versionA_stim.csv,ReadVersion.csv,Read,Read1,TEMPERATURE,MORNING,Study1,U,48,15,Test,User,-,,Recall,Recall1,5206,warm,18.181818181818,3540,4564,0,0,,1
56fc8248b5648e000fac9980,qt19y34mmz,"Mediated Recall_Prolific",1,106,2023-03-07T21:17:16+00:00,196.14837908745,1,versionA_stim.csv,ReadVersion.csv,Read,Read1,,,,,,0,Instruct,-,10,"You will now be presented with a new set of word pairs. Please study each pair. Remember that your memory will be tested! When finished, press Enter to move to the next pair.",Initial_Instruct,Instruct4,195747,,,-1,-1,,,,0.998
56fc8248b5648e000fac9980,qt19y34mmz,"Mediated Recall_Prolific",1,107,2023-03-07T21:17:18+00:00,2.3868250846863,1,versionA_stim.csv,ReadVersion.csv,Read,Read1,,,,,,0,Instruct,User,-,"Press Enter when you are readty to begin",,Instruct11,2103,,,-1,-1,,,,1
56fc8248b5648e000fac9980,qt19y34mmz,"Mediated Recall_Prolific",1,108,2023-03-07T21:17:20+00:00,1.7435948848724,1,versionA_stim.csv,ReadVersion.csv,Read,Read1,CAMP,ADVENTURE,BUFFER4,Buffer,110,108,Study,User,-,,Study/JOL,BUFFER2,1509,,,-1,-1,,,,1
56fc8248b5648e000fac9980,qt19y34mmz,"Mediated Recall_Prolific",1,109,2023-03-07T21:17:21+00:00,0.79113507270813,1,versionA_stim.csv,ReadVersion.csv,Read,Read1,MONTH,YEAR,BUFFER3,Buffer,57,58,Study,User,-,,Study/JOL,BUFFER2,513,,,-1,-1,,,,1
56fc8248b5648e000fac9980,qt19y34mmz,"Mediated Recall_Prolific",1,110,2023-03-07T21:17:22+00:00,1.4641530513763,1,versionA_stim.csv,ReadVersion.csv,Read,Read1,THING,STUFF,BUFFER2,Buffer,55,56,Study,User,-,,Study/JOL,BUFFER2,1186,,,-1,-1,,,,1
56fc8248b5648e000fac9980,qt19y34mmz,"Mediated Recall_Prolific",1,111,2023-03-07T21:17:24+00:00,1.7706429958344,1,versionA_stim.csv,ReadVersion.csv,Read,Read1,DAYS,WEAKS,BUFFER3,Buffer,56,60,Study,User,-,,Study/JOL,BUFFER2,1513,,,-1,-1,,,,1
56fc8248b5648e000fac9980,qt19y34mmz,"Mediated Recall_Prolific",1,112,2023-03-07T21:17:26+00:00,2.1033730506897,1,versionA_stim.csv,ReadVersion.csv,Read,Read1,SHRIMP,FISH,BUFFER4,Buffer,108,110,Study,User,-,,Study/JOL,BUFFER2,1843,,,-1,-1,,,,1
56fc8248b5648e000fac9980,qt19y34mmz,"Mediated Recall_Prolific",1,113,2023-03-07T21:17:28+00:00,1.1745119094849,1,versionA_stim.csv,ReadVersion.csv,Read,Read1,CHISEL,HAMMER,Study2,F,78,82,Study,User,-,,Study/JOL,"Study Phase2",740,,,-1,-1,,,,1
56fc8248b5648e000fac9980,qt19y34mmz,"Mediated Recall_Prolific",1,114,2023-03-07T21:17:29+00:00,1.2740209102631,1,versionA_stim.csv,ReadVersion.csv,Read,Read1,WINDOW,KNOB,Study2,M,74,97,Study,User,-,,Study/JOL,"Study Phase2",1019,,,-1,-1,,,,1
56fc8248b5648e000fac9980,qt19y34mmz,"Mediated Recall_Prolific",1,115,2023-03-07T21:17:30+00:00,1.3608100414276,1,versionA_stim.csv,ReadVersion.csv,Read,Read1,EYES,SMELL,Study2,M,65,93,Study,User,-,,Study/JOL,"Study Phase2",1126,,,-1,-1,,,,1
56fc8248b5648e000fac9980,qt19y34mmz,"Mediated Recall_Prolific",1,116,2023-03-07T21:17:32+00:00,1.5112340450287,1,versionA_stim.csv,ReadVersion.csv,Read,Read1,ATTIRE,CLOTHES,Study2,F,79,85,Study,User,-,,Study/JOL,"Study Phase2",1260,,,-1,-1,,,,1
56fc8248b5648e000fac9980,qt19y34mmz,"Mediated Recall_Prolific",1,117,2023-03-07T21:17:33+00:00,1.1871359348297,1,versionA_stim.csv,ReadVersion.csv,Read,Read1,HAPPY,CAR,Study2,U,92,88,Study,User,-,,Study/JOL,"Study Phase2",929,,,-1,-1,,,,1
56fc8248b5648e000fac9980,qt19y34mmz,"Mediated Recall_Prolific",1,118,2023-03-07T21:17:34+00:00,1.2991721630096,1,versionA_stim.csv,ReadVersion.csv,Read,Read1,LEAGUE,BASEBALL,Study2,F,84,94,Study,User,-,,Study/JOL,"Study Phase2",924,,,-1,-1,,,,1
56fc8248b5648e000fac9980,qt19y34mmz,"Mediated Recall_Prolific",1,119,2023-03-07T21:17:35+00:00,1.141028881073,1,versionA_stim.csv,ReadVersion.csv,Read,Read1,HERD,COW,Study2,F,88,101,Study,User,-,,Study/JOL,"Study Phase2",899,,,-1,-1,,,,1
56fc8248b5648e000fac9980,qt19y34mmz,"Mediated Recall_Prolific",1,120,2023-03-07T21:17:37+00:00,1.7896790504456,1,versionA_stim.csv,ReadVersion.csv,Read,Read1,SUMMER,SNOW,Study2,M,61,79,Study,User,-,,Study/JOL,"Study Phase2",1530,,,-1,-1,,,,1
56fc8248b5648e000fac9980,qt19y34mmz,"Mediated Recall_Prolific",1,121,2023-03-07T21:17:38+00:00,1.0541679859161,1,versionA_stim.csv,ReadVersion.csv,Read,Read1,WASP,BUG,Study2,F,89,106,Study,User,-,,Study/JOL,"Study Phase2",821,,,-1,-1,,,,1
56fc8248b5648e000fac9980,qt19y34mmz,"Mediated Recall_Prolific",1,122,2023-03-07T21:17:39+00:00,0.97302985191345,1,versionA_stim.csv,ReadVersion.csv,Read,Read1,CHILL,COLD,Study2,F,87,90,Study,User,-,,Study/JOL,"Study Phase2",721,,,-1,-1,,,,1
56fc8248b5648e000fac9980,qt19y34mmz,"Mediated Recall_Prolific",1,123,2023-03-07T21:17:40+00:00,1.0919411182404,1,versionA_stim.csv,ReadVersion.csv,Read,Read1,STRONG,ACCIDENT,Study2,U,94,77,Study,User,-,,Study/JOL,"Study Phase2",819,,,-1,-1,,,,1
56fc8248b5648e000fac9980,qt19y34mmz,"Mediated Recall_Prolific",1,124,2023-03-07T21:17:46+00:00,5.3903579711914,1,versionA_stim.csv,ReadVersion.csv,Read,Read1,DOCUMENT,PAPER,Study2,F,82,100,Study,User,-,,Study/JOL,"Study Phase2",5137,,,-1,-1,,,,1
56fc8248b5648e000fac9980,qt19y34mmz,"Mediated Recall_Prolific",1,125,2023-03-07T21:17:47+00:00,1.2433290481567,1,versionA_stim.csv,ReadVersion.csv,Read,Read1,ART,WOLF,Study2,U,93,66,Study,User,-,,Study/JOL,"Study Phase2",960,,,-1,-1,,,,1
56fc8248b5648e000fac9980,qt19y34mmz,"Mediated Recall_Prolific",1,126,2023-03-07T21:17:49+00:00,1.6730699539185,1,versionA_stim.csv,ReadVersion.csv,Read,Read1,OVEN,BASKET,Study2,M,71,98,Study,User,-,,Study/JOL,"Study Phase2",1428,,,-1,-1,,,,1
56fc8248b5648e000fac9980,qt19y34mmz,"Mediated Recall_Prolific",1,127,2023-03-07T21:17:51+00:00,2.0097069740295,1,versionA_stim.csv,ReadVersion.csv,Read,Read1,HEAVY,FEATHER,Study2,M,68,81,Study,User,-,,Study/JOL,"Study Phase2",1773,,,-1,-1,,,,1
56fc8248b5648e000fac9980,qt19y34mmz,"Mediated Recall_Prolific",1,128,2023-03-07T21:17:53+00:00,2.4409301280975,1,versionA_stim.csv,ReadVersion.csv,Read,Read1,GRILL,THIGH,Study2,M,72,62,Study,User,-,,Study/JOL,"Study Phase2",2175,,,-1,-1,,,,1
56fc8248b5648e000fac9980,qt19y34mmz,"Mediated Recall_Prolific",1,129,2023-03-07T21:17:55+00:00,1.6505138874054,1,versionA_stim.csv,ReadVersion.csv,Read,Read1,VALLEY,PEAK,Study2,M,73,104,Study,User,-,,Study/JOL,"Study Phase2",1393,,,-1,-1,,,,1
56fc8248b5648e000fac9980,qt19y34mmz,"Mediated Recall_Prolific",1,130,2023-03-07T21:17:56+00:00,1.3893139362335,1,versionA_stim.csv,ReadVersion.csv,Read,Read1,SUGAR,RIDDLE,Study2,U,95,64,Study,User,-,,Study/JOL,"Study Phase2",1068,,,-1,-1,,,,1
56fc8248b5648e000fac9980,qt19y34mmz,"Mediated Recall_Prolific",1,131,2023-03-07T21:17:57+00:00,1.363156080246,1,versionA_stim.csv,ReadVersion.csv,Read,Read1,RAZOR,MUSCLE,Study2,M,75,92,Study,User,-,,Study/JOL,"Study Phase2",1106,,,-1,-1,,,,1
56fc8248b5648e000fac9980,qt19y34mmz,"Mediated Recall_Prolific",1,132,2023-03-07T21:17:59+00:00,1.3937790393829,1,versionA_stim.csv,ReadVersion.csv,Read,Read1,BLAZE,FIRE,Study2,F,81,65,Study,User,-,,Study/JOL,"Study Phase2",1134,,,-1,-1,,,,1
56fc8248b5648e000fac9980,qt19y34mmz,"Mediated Recall_Prolific",1,133,2023-03-07T21:18:05+00:00,5.9115810394287,1,versionA_stim.csv,ReadVersion.csv,Read,Read1,CHERRY,RED,Study2,F,80,68,Study,User,-,,Study/JOL,"Study Phase2",5655,,,-1,-1,,,,1
56fc8248b5648e000fac9980,qt19y34mmz,"Mediated Recall_Prolific",1,134,2023-03-07T21:18:06+00:00,1.0096838474274,1,versionA_stim.csv,ReadVersion.csv,Read,Read1,FEUD,FIGHT,Study2,F,86,67,Study,User,-,,Study/JOL,"Study Phase2",748,,,-1,-1,,,,1
56fc8248b5648e000fac9980,qt19y34mmz,"Mediated Recall_Prolific",1,135,2023-03-07T21:18:07+00:00,1.3555181026459,1,versionA_stim.csv,ReadVersion.csv,Read,Read1,ARTERY,BRONZE,Study2,U,103,105,Study,User,-,,Study/JOL,"Study Phase2",1118,,,-1,-1,,,,1
56fc8248b5648e000fac9980,qt19y34mmz,"Mediated Recall_Prolific",1,136,2023-03-07T21:18:09+00:00,2.4517660140991,1,versionA_stim.csv,ReadVersion.csv,Read,Read1,SCHOOL,STOP,Study2,M,62,76,Study,User,-,,Study/JOL,"Study Phase2",2190,,,-1,-1,,,,1
56fc8248b5648e000fac9980,qt19y34mmz,"Mediated Recall_Prolific",1,137,2023-03-07T21:18:12+00:00,2.8862569332123,1,versionA_stim.csv,ReadVersion.csv,Read,Read1,PUSH,CLUTTER,Study2,U,96,103,Study,User,-,,Study/JOL,"Study Phase2",2625,,,-1,-1,,,,1
56fc8248b5648e000fac9980,qt19y34mmz,"Mediated Recall_Prolific",1,138,2023-03-07T21:18:13+00:00,0.98407292366028,1,versionA_stim.csv,ReadVersion.csv,Read,Read1,KING,VASE,Study2,U,91,74,Study,User,-,,Study/JOL,"Study Phase2",724,,,-1,-1,,,,1
56fc8248b5648e000fac9980,qt19y34mmz,"Mediated Recall_Prolific",1,139,2023-03-07T21:18:14+00:00,1.055780172348,1,versionA_stim.csv,ReadVersion.csv,Read,Read1,SICK,HIDE,Study2,U,100,78,Study,User,-,,Study/JOL,"Study Phase2",750,,,-1,-1,,,,1
56fc8248b5648e000fac9980,qt19y34mmz,"Mediated Recall_Prolific",1,140,2023-03-07T21:18:15+00:00,0.98528599739075,1,versionA_stim.csv,ReadVersion.csv,Read,Read1,MIRROR,CHILDREN,Study2,U,104,70,Study,User,-,,Study/JOL,"Study Phase2",685,,,-1,-1,,,,1
56fc8248b5648e000fac9980,qt19y34mmz,"Mediated Recall_Prolific",1,141,2023-03-07T21:18:16+00:00,1.0732910633087,1,versionA_stim.csv,ReadVersion.csv,Read,Read1,TRAP,CAVE,Study2,M,70,95,Study,User,-,,Study/JOL,"Study Phase2",743,,,-1,-1,,,,1
56fc8248b5648e000fac9980,qt19y34mmz,"Mediated Recall_Prolific",1,142,2023-03-07T21:18:18+00:00,1.2022359371185,1,versionA_stim.csv,ReadVersion.csv,Read,Read1,CHOP,CUT,Study2,F,77,71,Study,User,-,,Study/JOL,"Study Phase2",913,,,-1,-1,,,,1
56fc8248b5648e000fac9980,qt19y34mmz,"Mediated Recall_Prolific",1,143,2023-03-07T21:18:19+00:00,1.3609738349915,1,versionA_stim.csv,ReadVersion.csv,Read,Read1,CACTUS,PLANT,Study2,F,76,80,Study,User,-,,Study/JOL,"Study Phase2",1098,,,-1,-1,,,,1
56fc8248b5648e000fac9980,qt19y34mmz,"Mediated Recall_Prolific",1,144,2023-03-07T21:18:20+00:00,0.75310802459717,1,versionA_stim.csv,ReadVersion.csv,Read,Read1,BRIDGE,WATER,Study2,F,90,96,Study,User,-,,Study/JOL,"Study Phase2",464,,,-1,-1,,,,1
56fc8248b5648e000fac9980,qt19y34mmz,"Mediated Recall_Prolific",1,145,2023-03-07T21:18:20+00:00,0.50214719772339,1,versionA_stim.csv,ReadVersion.csv,Read,Read1,CASH,LEG,Study2,U,105,73,Study,User,-,,Study/JOL,"Study Phase2",246,,,-1,-1,,,,1
56fc8248b5648e000fac9980,qt19y34mmz,"Mediated Recall_Prolific",1,146,2023-03-07T21:18:22+00:00,1.8406009674072,1,versionA_stim.csv,ReadVersion.csv,Read,Read1,BENCH,HORN,Study2,U,98,75,Study,User,-,,Study/JOL,"Study Phase2",1608,,,-1,-1,,,,1
56fc8248b5648e000fac9980,qt19y34mmz,"Mediated Recall_Prolific",1,147,2023-03-07T21:18:25+00:00,2.4889249801636,1,versionA_stim.csv,ReadVersion.csv,Read,Read1,DEATH,BUSINESS,Study2,U,99,89,Study,User,-,,Study/JOL,"Study Phase2",2227,,,-1,-1,,,,1
56fc8248b5648e000fac9980,qt19y34mmz,"Mediated Recall_Prolific",1,148,2023-03-07T21:18:29+00:00,3.9266710281372,1,versionA_stim.csv,ReadVersion.csv,Read,Read1,BOTH,OUNCE,Study2,U,102,102,Study,User,-,,Study/JOL,"Study Phase2",3641,,,-1,-1,,,,1
56fc8248b5648e000fac9980,qt19y34mmz,"Mediated Recall_Prolific",1,149,2023-03-07T21:18:32+00:00,2.9593119621277,1,versionA_stim.csv,ReadVersion.csv,Read,Read1,INCENSE,SMELL,Study2,F,83,91,Study,User,-,,Study/JOL,"Study Phase2",2721,,,-1,-1,,,,1
56fc8248b5648e000fac9980,qt19y34mmz,"Mediated Recall_Prolific",1,150,2023-03-07T21:18:32+00:00,0.50958395004272,1,versionA_stim.csv,ReadVersion.csv,Read,Read1,DIETARY,SACK,Study2,U,97,84,Study,User,-,,Study/JOL,"Study Phase2",179,,,-1,-1,,,,1
56fc8248b5648e000fac9980,qt19y34mmz,"Mediated Recall_Prolific",1,151,2023-03-07T21:18:32+00:00,0.267746925354,1,versionA_stim.csv,ReadVersion.csv,Read,Read1,LEASE,TOIL,Study2,U,101,69,Study,User,-,,Study/JOL,"Study Phase2",34,,,-1,-1,,,,1
56fc8248b5648e000fac9980,qt19y34mmz,"Mediated Recall_Prolific",1,152,2023-03-07T21:18:33+00:00,0.26720404624939,1,versionA_stim.csv,ReadVersion.csv,Read,Read1,HORNET,STING,Study2,F,85,83,Study,User,-,,Study/JOL,"Study Phase2",37,,,-1,-1,,,,1
56fc8248b5648e000fac9980,qt19y34mmz,"Mediated Recall_Prolific",1,153,2023-03-07T21:18:33+00:00,0.25939202308655,1,versionA_stim.csv,ReadVersion.csv,Read,Read1,SOAP,DRINK,Study2,M,67,87,Study,User,-,,Study/JOL,"Study Phase2",28,,,-1,-1,,,,1
56fc8248b5648e000fac9980,qt19y34mmz,"Mediated Recall_Prolific",1,154,2023-03-07T21:18:35+00:00,1.9970319271088,1,versionA_stim.csv,ReadVersion.csv,Read,Read1,RAKE,SEED,Study2,M,69,99,Study,User,-,,Study/JOL,"Study Phase2",1776,,,-1,-1,,,,1
56fc8248b5648e000fac9980,qt19y34mmz,"Mediated Recall_Prolific",1,155,2023-03-07T21:18:36+00:00,1.4040219783783,1,versionA_stim.csv,ReadVersion.csv,Read,Read1,NURSE,LAWYER,Study2,M,66,86,Study,User,-,,Study/JOL,"Study Phase2",1153,,,-1,-1,,,,1
56fc8248b5648e000fac9980,qt19y34mmz,"Mediated Recall_Prolific",1,156,2023-03-07T21:18:38+00:00,1.4737331867218,1,versionA_stim.csv,ReadVersion.csv,Read,Read1,PANTS,COLLAR,Study2,M,63,63,Study,User,-,,Study/JOL,"Study Phase2",1227,,,-1,-1,,,,1
56fc8248b5648e000fac9980,qt19y34mmz,"Mediated Recall_Prolific",1,157,2023-03-07T21:18:40+00:00,2.0522899627686,1,versionA_stim.csv,ReadVersion.csv,Read,Read1,REALITY,ISLAND,Study2,M,64,72,Study,User,-,,Study/JOL,"Study Phase2",1785,,,-1,-1,,,,1
56fc8248b5648e000fac9980,qt19y34mmz,"Mediated Recall_Prolific",1,158,2023-03-07T21:18:41+00:00,1.1933219432831,1,versionA_stim.csv,ReadVersion.csv,Read,Read1,NOODLE,STRING,BUFFER4,Buffer,107,109,Study,User,-,,Study/JOL,BUFFER2,939,,,-1,-1,,,,1
56fc8248b5648e000fac9980,qt19y34mmz,"Mediated Recall_Prolific",1,159,2023-03-07T21:18:42+00:00,1.4463019371033,1,versionA_stim.csv,ReadVersion.csv,Read,Read1,CARROT,POTATO,BUFFER4,Buffer,106,111,Study,User,-,,Study/JOL,BUFFER2,1195,,,-1,-1,,,,1
56fc8248b5648e000fac9980,qt19y34mmz,"Mediated Recall_Prolific",1,160,2023-03-07T21:18:44+00:00,1.4547641277313,1,versionA_stim.csv,ReadVersion.csv,Read,Read1,OCTOBER,SPOOKY,BUFFER3,Buffer,60,57,Study,User,-,,Study/JOL,BUFFER2,1206,,,-1,-1,,,,1
56fc8248b5648e000fac9980,qt19y34mmz,"Mediated Recall_Prolific",1,161,2023-03-07T21:18:46+00:00,2.0545330047607,1,versionA_stim.csv,ReadVersion.csv,Read,Read1,SPRING,MARCH,BUFFER3,Buffer,59,61,Study,User,-,,Study/JOL,BUFFER2,1795,,,-1,-1,,,,1
56fc8248b5648e000fac9980,qt19y34mmz,"Mediated Recall_Prolific",1,162,2023-03-07T21:18:47+00:00,1.527067899704,1,versionA_stim.csv,ReadVersion.csv,Read,Read1,SHERRIF,POLICE,BUFFER2,Buffer,52,52,Study,User,-,,Study/JOL,BUFFER2,1288,,,-1,-1,,,,1
56fc8248b5648e000fac9980,qt19y34mmz,"Mediated Recall_Prolific",1,163,2023-03-07T21:18:49+00:00,2.0010750293732,1,versionA_stim.csv,ReadVersion.csv,Read,Read1,,,,,,0,Instruct,User,-,"You have completed this section. Please press Enter.",Filler_Instruction,Instruct2,1749,,,-1,-1,,,,1
56fc8248b5648e000fac9980,qt19y34mmz,"Mediated Recall_Prolific",1,164,2023-03-07T21:20:50+00:00,120.45127010345,1,versionA_stim.csv,ReadVersion.csv,Read,Read1,,,,,,0,FreeRecall,120,120,"Please list the 50 US states in alphabetical order. The task will automatically advance to the next screen after two minutes.",,Filler1,120001,"Alabama Alaska Arizona Arkansas California Colorado Delaware Florida Georgia Hawaii Indiana Idaho Illinios ",0,5015,117872,0,0,,0.952
56fc8248b5648e000fac9980,qt19y34mmz,"Mediated Recall_Prolific",1,165,2023-03-07T21:22:08+00:00,78.408288002014,1,versionA_stim.csv,ReadVersion.csv,Read,Read1,,,,,,0,Instruct,-,10,"You will now be presented with the first word from each of the previously studied item pairs. Please type the missing word. If you do not know the word, you may guess or press Enter to skip forward to the next pair.",,Instruct3,77981,,,-1,-1,,,,1
56fc8248b5648e000fac9980,qt19y34mmz,"Mediated Recall_Prolific",1,166,2023-03-07T21:22:26+00:00,17.845960855484,1,versionA_stim.csv,ReadVersion.csv,Read,Read1,CHISEL,HAMMER,Study2,F,78,82,Test,User,-,,Recall,Recall2,17529,hammer,100,16374,17341,1,1,,1
56fc8248b5648e000fac9980,qt19y34mmz,"Mediated Recall_Prolific",1,167,2023-03-07T21:22:31+00:00,4.7065479755402,1,versionA_stim.csv,ReadVersion.csv,Read,Read1,FEUD,FIGHT,Study2,F,86,67,Test,User,-,,Recall,Recall2,4440,family,36.363636363636,1965,4057,0,0,,1
56fc8248b5648e000fac9980,qt19y34mmz,"Mediated Recall_Prolific",1,168,2023-03-07T21:22:38+00:00,7.263444185257,1,versionA_stim.csv,ReadVersion.csv,Read,Read1,PANTS,COLLAR,Study2,M,63,63,Test,User,-,,Recall,Recall2,6984,knickers,28.571428571429,3076,5838,0,0,,1
56fc8248b5648e000fac9980,qt19y34mmz,"Mediated Recall_Prolific",1,169,2023-03-07T21:22:41+00:00,3.0566458702087,1,versionA_stim.csv,ReadVersion.csv,Read,Read1,PUSH,CLUTTER,Study2,U,96,103,Test,User,-,,Recall,Recall2,2778,button,46.153846153846,1372,2531,0,0,,1
56fc8248b5648e000fac9980,qt19y34mmz,"Mediated Recall_Prolific",1,170,2023-03-07T21:22:44+00:00,3.1079621315002,1,versionA_stim.csv,ReadVersion.csv,Read,Read1,WASP,BUG,Study2,F,89,106,Test,User,-,,Recall,Recall2,2869,queen,25,1701,2642,0,0,,1
56fc8248b5648e000fac9980,qt19y34mmz,"Mediated Recall_Prolific",1,171,2023-03-07T21:22:53+00:00,8.9482078552246,1,versionA_stim.csv,ReadVersion.csv,Read,Read1,HERD,COW,Study2,F,88,101,Test,User,-,,Recall,Recall2,8693,sheep,0,1511,2116,0,0,,1
56fc8248b5648e000fac9980,qt19y34mmz,"Mediated Recall_Prolific",1,172,2023-03-07T21:22:57+00:00,3.3604321479797,1,versionA_stim.csv,ReadVersion.csv,Read,Read1,REALITY,ISLAND,Study2,M,64,72,Test,User,-,,Recall,Recall2,3085,check,0,2061,2902,0,0,,1
56fc8248b5648e000fac9980,qt19y34mmz,"Mediated Recall_Prolific",1,173,2023-03-07T21:22:59+00:00,2.5843298435211,1,versionA_stim.csv,ReadVersion.csv,Read,Read1,NURSE,LAWYER,Study2,M,66,86,Test,User,-,,Recall,Recall2,2319,joy,22.222222222222,1750,2116,0,0,,1
56fc8248b5648e000fac9980,qt19y34mmz,"Mediated Recall_Prolific",1,174,2023-03-07T21:23:03+00:00,4.3023431301117,1,versionA_stim.csv,ReadVersion.csv,Read,Read1,LEASE,TOIL,Study2,U,101,69,Test,User,-,,Recall,Recall2,4028,house,22.222222222222,2980,3571,0,0,,1
56fc8248b5648e000fac9980,qt19y34mmz,"Mediated Recall_Prolific",1,175,2023-03-07T21:23:07+00:00,3.948558807373,1,versionA_stim.csv,ReadVersion.csv,Read,Read1,VALLEY,PEAK,Study2,M,73,104,Test,User,-,,Recall,Recall2,3693,ridge,22.222222222222,2923,3527,0,0,,1
56fc8248b5648e000fac9980,qt19y34mmz,"Mediated Recall_Prolific",1,176,2023-03-07T21:24:10+00:00,62.522706985474,1,versionA_stim.csv,ReadVersion.csv,Read,Read1,SICK,HIDE,Study2,U,100,78,Test,User,-,,Recall,Recall2,62108,patient,36.363636363636,58509,61894,0,0,,1
56fc8248b5648e000fac9980,qt19y34mmz,"Mediated Recall_Prolific",1,177,2023-03-07T21:24:13+00:00,2.7083950042725,1,versionA_stim.csv,ReadVersion.csv,Read,Read1,CASH,LEG,Study2,U,105,73,Test,User,-,,Recall,Recall2,2413,flow,28.571428571429,1616,2273,0,0,,1
56fc8248b5648e000fac9980,qt19y34mmz,"Mediated Recall_Prolific",1,178,2023-03-07T21:24:18+00:00,5.5994951725006,1,versionA_stim.csv,ReadVersion.csv,Read,Read1,CHOP,CUT,Study2,F,77,71,Test,User,-,,Recall,Recall2,5333,meat,28.571428571429,3993,4523,0,0,,1
56fc8248b5648e000fac9980,qt19y34mmz,"Mediated Recall_Prolific",1,179,2023-03-07T21:24:32+00:00,13.462064981461,1,versionA_stim.csv,ReadVersion.csv,Read,Read1,GRILL,THIGH,Study2,M,72,62,Test,User,-,,Recall,Recall2,13193,marks,0,10413,13062,0,0,,1
56fc8248b5648e000fac9980,qt19y34mmz,"Mediated Recall_Prolific",1,180,2023-03-07T21:24:38+00:00,6.1788530349731,1,versionA_stim.csv,ReadVersion.csv,Read,Read1,EYES,SMELL,Study2,M,65,93,Test,User,-,,Recall,Recall2,5906,smell,100,1967,5613,1,1,,1
56fc8248b5648e000fac9980,qt19y34mmz,"Mediated Recall_Prolific",1,181,2023-03-07T21:24:49+00:00,11.214099884033,1,versionA_stim.csv,ReadVersion.csv,Read,Read1,SCHOOL,STOP,Study2,M,62,76,Test,User,-,,Recall,Recall2,10901,time,25,8330,10538,0,0,,1
56fc8248b5648e000fac9980,qt19y34mmz,"Mediated Recall_Prolific",1,182,2023-03-07T21:24:52+00:00,3.1428689956665,1,versionA_stim.csv,ReadVersion.csv,Read,Read1,CHILL,COLD,Study2,F,87,90,Test,User,-,,Recall,Recall2,2888,out,28.571428571429,2374,2810,0,0,,1
56fc8248b5648e000fac9980,qt19y34mmz,"Mediated Recall_Prolific",1,183,2023-03-07T21:24:55+00:00,3.0525760650635,1,versionA_stim.csv,ReadVersion.csv,Read,Read1,HORNET,STING,Study2,F,85,83,Test,User,-,,Recall,Recall2,2787,wasp,22.222222222222,1963,2383,0,0,,1
56fc8248b5648e000fac9980,qt19y34mmz,"Mediated Recall_Prolific",1,184,2023-03-07T21:25:01+00:00,6.1089539527893,1,versionA_stim.csv,ReadVersion.csv,Read,Read1,WINDOW,KNOB,Study2,M,74,97,Test,User,-,,Recall,Recall2,5836,pane,25,2248,5692,0,0,,1
56fc8248b5648e000fac9980,qt19y34mmz,"Mediated Recall_Prolific",1,185,2023-03-07T21:25:07+00:00,5.6952519416809,1,versionA_stim.csv,ReadVersion.csv,Read,Read1,OVEN,BASKET,Study2,M,71,98,Test,User,-,,Recall,Recall2,5422,grills,16.666666666667,1551,5190,0,0,,1
56fc8248b5648e000fac9980,qt19y34mmz,"Mediated Recall_Prolific",1,186,2023-03-07T21:25:12+00:00,5.2163200378418,1,versionA_stim.csv,ReadVersion.csv,Read,Read1,RAKE,SEED,Study2,M,69,99,Test,User,-,,Recall,Recall2,4943,leaves,40,2052,4543,0,0,,1
56fc8248b5648e000fac9980,qt19y34mmz,"Mediated Recall_Prolific",1,187,2023-03-07T21:25:20+00:00,8.18195104599,1,versionA_stim.csv,ReadVersion.csv,Read,Read1,SUGAR,RIDDLE,Study2,U,95,64,Test,User,-,,Recall,Recall2,7924,rush,20,4696,7568,0,0,,1
56fc8248b5648e000fac9980,qt19y34mmz,"Mediated Recall_Prolific",1,188,2023-03-07T21:25:26+00:00,5.3426101207733,1,versionA_stim.csv,ReadVersion.csv,Read,Read1,ART,WOLF,Study2,U,93,66,Test,User,-,,Recall,Recall2,5084,frame,22.222222222222,3620,4665,0,0,,1
56fc8248b5648e000fac9980,qt19y34mmz,"Mediated Recall_Prolific",1,189,2023-03-07T21:25:32+00:00,6.4751529693604,1,versionA_stim.csv,ReadVersion.csv,Read,Read1,TRAP,CAVE,Study2,M,70,95,Test,User,-,,Recall,Recall2,6180,clap,50,2416,5990,0,0,,1
56fc8248b5648e000fac9980,qt19y34mmz,"Mediated Recall_Prolific",1,190,2023-03-07T21:25:39+00:00,6.3804519176483,1,versionA_stim.csv,ReadVersion.csv,Read,Read1,HAPPY,CAR,Study2,U,92,88,Test,User,-,,Recall,Recall2,6092,smile,0,5145,5917,0,0,,1
56fc8248b5648e000fac9980,qt19y34mmz,"Mediated Recall_Prolific",1,191,2023-03-07T21:25:44+00:00,5.2325251102448,1,versionA_stim.csv,ReadVersion.csv,Read,Read1,HEAVY,FEATHER,Study2,M,68,81,Test,User,-,,Recall,Recall2,4961,burden,15.384615384615,2048,4778,0,0,,1
56fc8248b5648e000fac9980,qt19y34mmz,"Mediated Recall_Prolific",1,192,2023-03-07T21:25:50+00:00,5.6274228096008,1,versionA_stim.csv,ReadVersion.csv,Read,Read1,DEATH,BUSINESS,Study2,U,99,89,Test,User,-,,Recall,Recall2,5386,bed',33.333333333333,1881,4286,0,0,,1
56fc8248b5648e000fac9980,qt19y34mmz,"Mediated Recall_Prolific",1,193,2023-03-07T21:25:58+00:00,8.4415471553802,1,versionA_stim.csv,ReadVersion.csv,Read,Read1,DIETARY,SACK,Study2,U,97,84,Test,User,-,,Recall,Recall2,8186,needs,22.222222222222,6366,7955,0,0,,1
56fc8248b5648e000fac9980,qt19y34mmz,"Mediated Recall_Prolific",1,194,2023-03-07T21:26:01+00:00,3.3275949954987,1,versionA_stim.csv,ReadVersion.csv,Read,Read1,KING,VASE,Study2,U,91,74,Test,User,-,,Recall,Recall2,3051,queen,22.222222222222,2065,2865,0,0,,1
56fc8248b5648e000fac9980,qt19y34mmz,"Mediated Recall_Prolific",1,195,2023-03-07T21:26:07+00:00,5.7960398197174,1,versionA_stim.csv,ReadVersion.csv,Read,Read1,ARTERY,BRONZE,Study2,U,103,105,Test,User,-,,Recall,Recall2,5537,heart,18.181818181818,2310,5367,0,0,,1
56fc8248b5648e000fac9980,qt19y34mmz,"Mediated Recall_Prolific",1,196,2023-03-07T21:26:10+00:00,2.9937720298767,1,versionA_stim.csv,ReadVersion.csv,Read,Read1,BLAZE,FIRE,Study2,F,81,65,Test,User,-,,Recall,Recall2,2697,fire,100,1766,2345,1,1,,1
56fc8248b5648e000fac9980,qt19y34mmz,"Mediated Recall_Prolific",1,197,2023-03-07T21:26:16+00:00,5.5172681808472,1,versionA_stim.csv,ReadVersion.csv,Read,Read1,RAZOR,MUSCLE,Study2,M,75,92,Test,User,-,,Recall,Recall2,5278,burn,20,1560,4504,0,0,,1
56fc8248b5648e000fac9980,qt19y34mmz,"Mediated Recall_Prolific",1,198,2023-03-07T21:26:23+00:00,7.6949329376221,1,versionA_stim.csv,ReadVersion.csv,Read,Read1,CACTUS,PLANT,Study2,F,76,80,Test,User,-,,Recall,Recall2,7403,plant,100,3274,6658,1,1,,1
56fc8248b5648e000fac9980,qt19y34mmz,"Mediated Recall_Prolific",1,199,2023-03-07T21:26:27+00:00,3.7722308635712,1,versionA_stim.csv,ReadVersion.csv,Read,Read1,CHERRY,RED,Study2,F,80,68,Test,User,-,,Recall,Recall2,3470,soda,28.571428571429,2682,3139,0,0,,1
56fc8248b5648e000fac9980,qt19y34mmz,"Mediated Recall_Prolific",1,200,2023-03-07T21:26:32+00:00,5.2289600372314,1,versionA_stim.csv,ReadVersion.csv,Read,Read1,SOAP,DRINK,Study2,M,67,87,Test,User,-,,Recall,Recall2,4959,mild,22.222222222222,3834,4487,0,0,,1
56fc8248b5648e000fac9980,qt19y34mmz,"Mediated Recall_Prolific",1,201,2023-03-07T21:26:37+00:00,4.9423749446869,1,versionA_stim.csv,ReadVersion.csv,Read,Read1,ATTIRE,CLOTHES,Study2,F,79,85,Test,User,-,,Recall,Recall2,4666,clothes,100,3234,4504,1,1,,1
56fc8248b5648e000fac9980,qt19y34mmz,"Mediated Recall_Prolific",1,202,2023-03-07T21:26:44+00:00,6.6269090175629,1,versionA_stim.csv,ReadVersion.csv,Read,Read1,STRONG,ACCIDENT,Study2,U,94,77,Test,User,-,,Recall,Recall2,6347,will,16.666666666667,1425,5923,0,0,,1
56fc8248b5648e000fac9980,qt19y34mmz,"Mediated Recall_Prolific",1,203,2023-03-07T21:26:50+00:00,6.4350380897522,1,versionA_stim.csv,ReadVersion.csv,Read,Read1,INCENSE,SMELL,Study2,F,83,91,Test,User,-,,Recall,Recall2,6154,burner,18.181818181818,2595,5897,0,0,,1
56fc8248b5648e000fac9980,qt19y34mmz,"Mediated Recall_Prolific",1,204,2023-03-07T21:26:54+00:00,4.1602439880371,1,versionA_stim.csv,ReadVersion.csv,Read,Read1,DOCUMENT,PAPER,Study2,F,82,100,Test,User,-,,Recall,Recall2,3819,finder,36.363636363636,2468,3617,0,0,,1
56fc8248b5648e000fac9980,qt19y34mmz,"Mediated Recall_Prolific",1,205,2023-03-07T21:26:59+00:00,4.0944600105286,1,versionA_stim.csv,ReadVersion.csv,Read,Read1,LEAGUE,BASEBALL,Study2,F,84,94,Test,User,-,,Recall,Recall2,3838,pass,33.333333333333,2378,3127,0,0,,1
56fc8248b5648e000fac9980,qt19y34mmz,"Mediated Recall_Prolific",1,206,2023-03-07T21:27:10+00:00,10.965358018875,1,versionA_stim.csv,ReadVersion.csv,Read,Read1,BENCH,HORN,Study2,U,98,75,Test,User,-,,Recall,Recall2,10694,press,22.222222222222,2247,10324,0,0,,1
56fc8248b5648e000fac9980,qt19y34mmz,"Mediated Recall_Prolific",1,207,2023-03-07T21:27:14+00:00,4.3622698783875,1,versionA_stim.csv,ReadVersion.csv,Read,Read1,BOTH,OUNCE,Study2,U,102,102,Test,User,-,,Recall,Recall2,4100,neither,33.333333333333,3099,3969,0,0,,1
56fc8248b5648e000fac9980,qt19y34mmz,"Mediated Recall_Prolific",1,208,2023-03-07T21:27:22+00:00,8.207771062851,1,versionA_stim.csv,ReadVersion.csv,Read,Read1,BRIDGE,WATER,Study2,F,90,96,Test,User,-,,Recall,Recall2,7940,tunnel,36.363636363636,6272,7413,0,0,,1
56fc8248b5648e000fac9980,qt19y34mmz,"Mediated Recall_Prolific",1,209,2023-03-07T21:27:28+00:00,6.1561651229858,1,versionA_stim.csv,ReadVersion.csv,Read,Read1,SUMMER,SNOW,Study2,M,61,79,Test,User,-,,Recall,Recall2,5864,nights,20,1441,5145,0,0,,1
56fc8248b5648e000fac9980,qt19y34mmz,"Mediated Recall_Prolific",1,210,2023-03-07T21:27:36+00:00,7.691535949707,1,versionA_stim.csv,ReadVersion.csv,Read,Read1,MIRROR,CHILDREN,Study2,U,104,70,Test,User,-,,Recall,Recall2,7433,glass,15.384615384615,6147,7245,0,0,,1
56fc8248b5648e000fac9980,qt19y34mmz,"Mediated Recall_Prolific",1,211,2023-03-07T21:27:38+00:00,2.3765740394592,1,versionA_stim.csv,ReadVersion.csv,Read,Read1,,,,,,0,Instruct,User,-,"You have completed this section. Please press Enter.",,Instruct7,2117,,,-1,-1,,,,1
56fc8248b5648e000fac9980,qt19y34mmz,"Mediated Recall_Prolific",1,212,2023-03-07T21:27:42+00:00,3.4974818229675,1,versionA_stim.csv,ReadVersion.csv,Read,Read1,,,,,,0,Instruct,User,-,"The following screen will ask you a few questions abour your experience today. You must complete these questions to receive credit.",,Instruct8,3238,,,-1,-1,,,,1
