Username,ID,ExperimentName,Session,Trial,Date,TimeDif,"Condition Number","Stimuli File","Order File","Condition Description","Condition Notes",Stimuli*Cue,Stimuli*Answer,Stimuli*Shuffle,"Stimuli*Stimuli Notes",Stimuli*Value,Procedure*Item,"Procedure*Trial Type","Procedure*Max Time","Procedure*Min Time",Procedure*Text,"Procedure*Procedure Notes",Procedure*Shuffle,Response*RT,Response*Response,Response*Accuracy,Response*RTfirst,Response*RTlast,Response*strictAcc,Response*lenientAcc,Response*focus,Response*Focus
62877d5f6a054e53313ac916,zrt78p1yy2,"Mediated Recall_Prolific",1,1,2023-03-04T18:05:02+00:00,6.7502100467682,1,versionA_stim.csv,ReadVersion.csv,Read,Read1,,,,,,0,Instruct,-,5,"In this section, you will be presented with a series of word pairs. Please study each word pair! Your memory will be tested!",Initial_Instruct,Instruct1,6585,,,-1,-1,,,,0.963
62877d5f6a054e53313ac916,zrt78p1yy2,"Mediated Recall_Prolific",1,2,2023-03-04T18:05:03+00:00,1.5567579269409,1,versionA_stim.csv,ReadVersion.csv,Read,Read1,,,,,,0,Instruct,User,-,"You will now begin. Press Enter when you are ready to begin.",,Instruct16,1079,,,-1,-1,,,,1
62877d5f6a054e53313ac916,zrt78p1yy2,"Mediated Recall_Prolific",1,3,2023-03-04T18:05:06+00:00,2.9268431663513,1,versionA_stim.csv,ReadVersion.csv,Read,Read1,SPACE,JAM,BUFFER1,Buffer,5,3,Study,User,-,,Study/JOL,BUFFER,2502,,,-1,-1,,,,1
62877d5f6a054e53313ac916,zrt78p1yy2,"Mediated Recall_Prolific",1,4,2023-03-04T18:05:07+00:00,1.1361169815063,1,versionA_stim.csv,ReadVersion.csv,Read,Read1,TREES,GREEN,BUFFER1,Buffer,1,4,Study,User,-,,Study/JOL,BUFFER,715,,,-1,-1,,,,1
62877d5f6a054e53313ac916,zrt78p1yy2,"Mediated Recall_Prolific",1,5,2023-03-04T18:05:08+00:00,1.0693898200989,1,versionA_stim.csv,ReadVersion.csv,Read,Read1,PITCHER,CATCHER,BUFFER1,Buffer,2,2,Study,User,-,,Study/JOL,BUFFER,624,,,-1,-1,,,,1
62877d5f6a054e53313ac916,zrt78p1yy2,"Mediated Recall_Prolific",1,6,2023-03-04T18:05:09+00:00,0.75049805641174,1,versionA_stim.csv,ReadVersion.csv,Read,Read1,SCARE,FRIGHT,BUFFER1,Buffer,4,5,Study,User,-,,Study/JOL,BUFFER,353,,,-1,-1,,,,1
62877d5f6a054e53313ac916,zrt78p1yy2,"Mediated Recall_Prolific",1,7,2023-03-04T18:05:11+00:00,1.6214580535889,1,versionA_stim.csv,ReadVersion.csv,Read,Read1,PEANUT,BUTTER,BUFFER1,Buffer,3,6,Study,User,-,,Study/JOL,BUFFER,1230,,,-1,-1,,,,1
62877d5f6a054e53313ac916,zrt78p1yy2,"Mediated Recall_Prolific",1,8,2023-03-04T18:05:12+00:00,1.0151360034943,1,versionA_stim.csv,ReadVersion.csv,Read,Read1,TOOTH,HAIR,Study1,M,19,36,Study,User,-,,Study/JOL,"Study Phase",675,,,-1,-1,,,,1
62877d5f6a054e53313ac916,zrt78p1yy2,"Mediated Recall_Prolific",1,9,2023-03-04T18:05:13+00:00,1.1979520320892,1,versionA_stim.csv,ReadVersion.csv,Read,Read1,ROUGH,SILK,Study1,M,10,49,Study,User,-,,Study/JOL,"Study Phase",781,,,-1,-1,,,,1
62877d5f6a054e53313ac916,zrt78p1yy2,"Mediated Recall_Prolific",1,10,2023-03-04T18:05:14+00:00,1.0616638660431,1,versionA_stim.csv,ReadVersion.csv,Read,Read1,AFFECTION,LOVE,Study1,F,31,24,Study,User,-,,Study/JOL,"Study Phase",820,,,-1,-1,,,,1
62877d5f6a054e53313ac916,zrt78p1yy2,"Mediated Recall_Prolific",1,11,2023-03-04T18:05:15+00:00,1.315113067627,1,versionA_stim.csv,ReadVersion.csv,Read,Read1,BEACH,BOX,Study1,M,7,11,Study,User,-,,Study/JOL,"Study Phase",940,,,-1,-1,,,,1
62877d5f6a054e53313ac916,zrt78p1yy2,"Mediated Recall_Prolific",1,12,2023-03-04T18:05:16+00:00,0.98477697372437,1,versionA_stim.csv,ReadVersion.csv,Read,Read1,MULE,DONKEY,Study1,F,24,15,Study,User,-,,Study/JOL,"Study Phase",701,,,-1,-1,,,,1
62877d5f6a054e53313ac916,zrt78p1yy2,"Mediated Recall_Prolific",1,13,2023-03-04T18:05:17+00:00,1.0338230133057,1,versionA_stim.csv,ReadVersion.csv,Read,Read1,SOON,BELT,Study1,U,46,46,Study,User,-,,Study/JOL,"Study Phase",578,,,-1,-1,,,,1
62877d5f6a054e53313ac916,zrt78p1yy2,"Mediated Recall_Prolific",1,14,2023-03-04T18:05:18+00:00,0.95266795158386,1,versionA_stim.csv,ReadVersion.csv,Read,Read1,CRACKLE,ELECTION,Study1,U,39,10,Study,User,-,,Study/JOL,"Study Phase",545,,,-1,-1,,,,1
62877d5f6a054e53313ac916,zrt78p1yy2,"Mediated Recall_Prolific",1,15,2023-03-04T18:05:20+00:00,1.2115261554718,1,versionA_stim.csv,ReadVersion.csv,Read,Read1,DAY,DARK,Study1,M,18,37,Study,User,-,,Study/JOL,"Study Phase",861,,,-1,-1,,,,1
62877d5f6a054e53313ac916,zrt78p1yy2,"Mediated Recall_Prolific",1,16,2023-03-04T18:05:20+00:00,0.88615798950195,1,versionA_stim.csv,ReadVersion.csv,Read,Read1,FUZZY,BANG,Study1,U,50,42,Study,User,-,,Study/JOL,"Study Phase",508,,,-1,-1,,,,1
62877d5f6a054e53313ac916,zrt78p1yy2,"Mediated Recall_Prolific",1,17,2023-03-04T18:05:21+00:00,1.0725519657135,1,versionA_stim.csv,ReadVersion.csv,Read,Read1,LISTEN,FICTION,Study1,U,44,14,Study,User,-,,Study/JOL,"Study Phase",613,,,-1,-1,,,,1
62877d5f6a054e53313ac916,zrt78p1yy2,"Mediated Recall_Prolific",1,18,2023-03-04T18:05:22+00:00,0.93365907669067,1,versionA_stim.csv,ReadVersion.csv,Read,Read1,WAR,QUIET,Study1,M,8,19,Study,User,-,,Study/JOL,"Study Phase",649,,,-1,-1,,,,1
62877d5f6a054e53313ac916,zrt78p1yy2,"Mediated Recall_Prolific",1,19,2023-03-04T18:05:23+00:00,0.93598580360413,1,versionA_stim.csv,ReadVersion.csv,Read,Read1,BIRTHDAY,PIE,Study1,M,9,27,Study,User,-,,Study/JOL,"Study Phase",538,,,-1,-1,,,,1
62877d5f6a054e53313ac916,zrt78p1yy2,"Mediated Recall_Prolific",1,20,2023-03-04T18:05:24+00:00,1.1491219997406,1,versionA_stim.csv,ReadVersion.csv,Read,Read1,WAGE,MONEY,Study1,F,22,32,Study,User,-,,Study/JOL,"Study Phase",850,,,-1,-1,,,,1
62877d5f6a054e53313ac916,zrt78p1yy2,"Mediated Recall_Prolific",1,21,2023-03-04T18:05:26+00:00,1.3714420795441,1,versionA_stim.csv,ReadVersion.csv,Read,Read1,CIRCLE,DANCE,Study1,M,13,13,Study,User,-,,Study/JOL,"Study Phase",715,,,-1,-1,,,,1
62877d5f6a054e53313ac916,zrt78p1yy2,"Mediated Recall_Prolific",1,22,2023-03-04T18:05:27+00:00,1.261647939682,1,versionA_stim.csv,ReadVersion.csv,Read,Read1,MAZE,PHONE,Study1,U,42,39,Study,User,-,,Study/JOL,"Study Phase",544,,,-1,-1,,,,1
62877d5f6a054e53313ac916,zrt78p1yy2,"Mediated Recall_Prolific",1,23,2023-03-04T18:05:28+00:00,1.0412600040436,1,versionA_stim.csv,ReadVersion.csv,Read,Read1,ORCHID,FLOWER,Study1,F,34,7,Study,User,-,,Study/JOL,"Study Phase",451,,,-1,-1,,,,1
62877d5f6a054e53313ac916,zrt78p1yy2,"Mediated Recall_Prolific",1,24,2023-03-04T18:05:29+00:00,0.85106110572815,1,versionA_stim.csv,ReadVersion.csv,Read,Read1,WEDDING,FINGER,Study1,M,17,35,Study,User,-,,Study/JOL,"Study Phase",458,,,-1,-1,,,,1
62877d5f6a054e53313ac916,zrt78p1yy2,"Mediated Recall_Prolific",1,25,2023-03-04T18:05:30+00:00,0.84402990341187,1,versionA_stim.csv,ReadVersion.csv,Read,Read1,GIVE,STEAK,Study1,U,38,34,Study,User,-,,Study/JOL,"Study Phase",608,,,-1,-1,,,,1
62877d5f6a054e53313ac916,zrt78p1yy2,"Mediated Recall_Prolific",1,26,2023-03-04T18:05:31+00:00,0.886803150177,1,versionA_stim.csv,ReadVersion.csv,Read,Read1,CAKE,HAND,Study1,U,49,43,Study,User,-,,Study/JOL,"Study Phase",532,,,-1,-1,,,,1
62877d5f6a054e53313ac916,zrt78p1yy2,"Mediated Recall_Prolific",1,27,2023-03-04T18:05:32+00:00,0.82089495658875,1,versionA_stim.csv,ReadVersion.csv,Read,Read1,CRY,BOTTLE,Study1,M,16,33,Study,User,-,,Study/JOL,"Study Phase",532,,,-1,-1,,,,1
62877d5f6a054e53313ac916,zrt78p1yy2,"Mediated Recall_Prolific",1,28,2023-03-04T18:05:33+00:00,1.1490290164948,1,versionA_stim.csv,ReadVersion.csv,Read,Read1,CEILING,CARPET,Study1,M,15,18,Study,User,-,,Study/JOL,"Study Phase",803,,,-1,-1,,,,1
62877d5f6a054e53313ac916,zrt78p1yy2,"Mediated Recall_Prolific",1,29,2023-03-04T18:05:34+00:00,1.5363450050354,1,versionA_stim.csv,ReadVersion.csv,Read,Read1,HYGIENE,CLEAN,Study1,F,28,29,Study,User,-,,Study/JOL,"Study Phase",1301,,,-1,-1,,,,1
62877d5f6a054e53313ac916,zrt78p1yy2,"Mediated Recall_Prolific",1,30,2023-03-04T18:05:35+00:00,0.79184889793396,1,versionA_stim.csv,ReadVersion.csv,Read,Read1,LITTER,TRASH,Study1,F,21,38,Study,User,-,,Study/JOL,"Study Phase",518,,,-1,-1,,,,1
62877d5f6a054e53313ac916,zrt78p1yy2,"Mediated Recall_Prolific",1,31,2023-03-04T18:05:36+00:00,0.92186403274536,1,versionA_stim.csv,ReadVersion.csv,Read,Read1,KEYS,ROD,Study1,U,45,30,Study,User,-,,Study/JOL,"Study Phase",669,,,-1,-1,,,,1
62877d5f6a054e53313ac916,zrt78p1yy2,"Mediated Recall_Prolific",1,32,2023-03-04T18:05:37+00:00,0.82680797576904,1,versionA_stim.csv,ReadVersion.csv,Read,Read1,SWAN,BIRD,Study1,F,26,16,Study,User,-,,Study/JOL,"Study Phase",450,,,-1,-1,,,,1
62877d5f6a054e53313ac916,zrt78p1yy2,"Mediated Recall_Prolific",1,33,2023-03-04T18:05:38+00:00,0.71474099159241,1,versionA_stim.csv,ReadVersion.csv,Read,Read1,SIGN,TICK,Study1,U,47,51,Study,User,-,,Study/JOL,"Study Phase",473,,,-1,-1,,,,1
62877d5f6a054e53313ac916,zrt78p1yy2,"Mediated Recall_Prolific",1,34,2023-03-04T18:05:38+00:00,0.72623991966248,1,versionA_stim.csv,ReadVersion.csv,Read,Read1,SCALP,HEAD,Study1,F,23,41,Study,User,-,,Study/JOL,"Study Phase",373,,,-1,-1,,,,1
62877d5f6a054e53313ac916,zrt78p1yy2,"Mediated Recall_Prolific",1,35,2023-03-04T18:05:39+00:00,0.76593899726868,1,versionA_stim.csv,ReadVersion.csv,Read,Read1,NAP,SLEEP,Study1,F,29,20,Study,User,-,,Study/JOL,"Study Phase",388,,,-1,-1,,,,1
62877d5f6a054e53313ac916,zrt78p1yy2,"Mediated Recall_Prolific",1,36,2023-03-04T18:05:40+00:00,0.66846013069153,1,versionA_stim.csv,ReadVersion.csv,Read,Read1,VEHICLE,CHARM,Study1,U,40,47,Study,User,-,,Study/JOL,"Study Phase",414,,,-1,-1,,,,1
62877d5f6a054e53313ac916,zrt78p1yy2,"Mediated Recall_Prolific",1,37,2023-03-04T18:05:40+00:00,0.75885605812073,1,versionA_stim.csv,ReadVersion.csv,Read,Read1,WORD,SENTENCE,Study1,F,27,17,Study,User,-,,Study/JOL,"Study Phase",387,,,-1,-1,,,,1
62877d5f6a054e53313ac916,zrt78p1yy2,"Mediated Recall_Prolific",1,38,2023-03-04T18:05:41+00:00,0.75995182991028,1,versionA_stim.csv,ReadVersion.csv,Read,Read1,ROOT,PLANT,Study1,F,25,22,Study,User,-,,Study/JOL,"Study Phase",414,,,-1,-1,,,,1
62877d5f6a054e53313ac916,zrt78p1yy2,"Mediated Recall_Prolific",1,39,2023-03-04T18:05:42+00:00,0.91669607162476,1,versionA_stim.csv,ReadVersion.csv,Read,Read1,HORSE,WHEEL,Study1,M,14,31,Study,User,-,,Study/JOL,"Study Phase",495,,,-1,-1,,,,1
62877d5f6a054e53313ac916,zrt78p1yy2,"Mediated Recall_Prolific",1,40,2023-03-04T18:05:43+00:00,0.96341013908386,1,versionA_stim.csv,ReadVersion.csv,Read,Read1,TEMPERATURE,MORNING,Study1,U,48,28,Study,User,-,,Study/JOL,"Study Phase",601,,,-1,-1,,,,1
62877d5f6a054e53313ac916,zrt78p1yy2,"Mediated Recall_Prolific",1,41,2023-03-04T18:05:44+00:00,0.77753186225891,1,versionA_stim.csv,ReadVersion.csv,Read,Read1,MIRROR,MAROON,Study1,U,36,23,Study,User,-,,Study/JOL,"Study Phase",433,,,-1,-1,,,,1
62877d5f6a054e53313ac916,zrt78p1yy2,"Mediated Recall_Prolific",1,42,2023-03-04T18:05:45+00:00,0.83372497558594,1,versionA_stim.csv,ReadVersion.csv,Read,Read1,SIP,DRINK,Study1,F,32,9,Study,User,-,,Study/JOL,"Study Phase",567,,,-1,-1,,,,1
62877d5f6a054e53313ac916,zrt78p1yy2,"Mediated Recall_Prolific",1,43,2023-03-04T18:05:45+00:00,0.81571412086487,1,versionA_stim.csv,ReadVersion.csv,Read,Read1,TUNA,FISH,Study1,F,35,44,Study,User,-,,Study/JOL,"Study Phase",441,,,-1,-1,,,,1
62877d5f6a054e53313ac916,zrt78p1yy2,"Mediated Recall_Prolific",1,44,2023-03-04T18:05:46+00:00,0.80737090110779,1,versionA_stim.csv,ReadVersion.csv,Read,Read1,LION,STRIPES,Study1,M,6,12,Study,User,-,,Study/JOL,"Study Phase",422,,,-1,-1,,,,1
62877d5f6a054e53313ac916,zrt78p1yy2,"Mediated Recall_Prolific",1,45,2023-03-04T18:05:47+00:00,0.79136204719543,1,versionA_stim.csv,ReadVersion.csv,Read,Read1,STRETCH,CLOTH,Study1,U,37,8,Study,User,-,,Study/JOL,"Study Phase",420,,,-1,-1,,,,1
62877d5f6a054e53313ac916,zrt78p1yy2,"Mediated Recall_Prolific",1,46,2023-03-04T18:05:48+00:00,0.89822006225586,1,versionA_stim.csv,ReadVersion.csv,Read,Read1,SHELL,SHAKE,Study1,U,43,50,Study,User,-,,Study/JOL,"Study Phase",567,,,-1,-1,,,,1
62877d5f6a054e53313ac916,zrt78p1yy2,"Mediated Recall_Prolific",1,47,2023-03-04T18:05:49+00:00,0.78061079978943,1,versionA_stim.csv,ReadVersion.csv,Read,Read1,HARD,COTTON,Study1,M,20,45,Study,User,-,,Study/JOL,"Study Phase",421,,,-1,-1,,,,1
62877d5f6a054e53313ac916,zrt78p1yy2,"Mediated Recall_Prolific",1,48,2023-03-04T18:05:49+00:00,0.71479320526123,1,versionA_stim.csv,ReadVersion.csv,Read,Read1,CREDIT,CARD,Study1,F,33,25,Study,User,-,,Study/JOL,"Study Phase",440,,,-1,-1,,,,1
62877d5f6a054e53313ac916,zrt78p1yy2,"Mediated Recall_Prolific",1,49,2023-03-04T18:05:50+00:00,0.78573989868164,1,versionA_stim.csv,ReadVersion.csv,Read,Read1,TREE,SYRUP,Study1,M,11,48,Study,User,-,,Study/JOL,"Study Phase",415,,,-1,-1,,,,1
62877d5f6a054e53313ac916,zrt78p1yy2,"Mediated Recall_Prolific",1,50,2023-03-04T18:05:51+00:00,0.79322791099548,1,versionA_stim.csv,ReadVersion.csv,Read,Read1,BAT,BOUNCE,Study1,M,12,40,Study,User,-,,Study/JOL,"Study Phase",523,,,-1,-1,,,,1
62877d5f6a054e53313ac916,zrt78p1yy2,"Mediated Recall_Prolific",1,51,2023-03-04T18:05:53+00:00,1.9142060279846,1,versionA_stim.csv,ReadVersion.csv,Read,Read1,MULE,DONKEY,Study1,F,30,26,Study,User,-,,Study/JOL,"Study Phase",1530,,,-1,-1,,,,1
62877d5f6a054e53313ac916,zrt78p1yy2,"Mediated Recall_Prolific",1,52,2023-03-04T18:05:54+00:00,0.82073402404785,1,versionA_stim.csv,ReadVersion.csv,Read,Read1,MEAT,KEYS,Study1,U,41,21,Study,User,-,,Study/JOL,"Study Phase",573,,,-1,-1,,,,1
62877d5f6a054e53313ac916,zrt78p1yy2,"Mediated Recall_Prolific",1,53,2023-03-04T18:05:55+00:00,0.8483099937439,1,versionA_stim.csv,ReadVersion.csv,Read,Read1,MOON,SPACE,BUFFER2,Buffer,54,53,Study,User,-,,Study/JOL,BUFFER2,483,,,-1,-1,,,,1
62877d5f6a054e53313ac916,zrt78p1yy2,"Mediated Recall_Prolific",1,54,2023-03-04T18:05:56+00:00,0.9060230255127,1,versionA_stim.csv,ReadVersion.csv,Read,Read1,OCTOBER,SPOOKY,BUFFER3,Buffer,60,57,Study,User,-,,Study/JOL,BUFFER2,628,,,-1,-1,,,,1
62877d5f6a054e53313ac916,zrt78p1yy2,"Mediated Recall_Prolific",1,55,2023-03-04T18:05:57+00:00,0.95662808418274,1,versionA_stim.csv,ReadVersion.csv,Read,Read1,CAMP,ADVENTURE,BUFFER4,Buffer,110,110,Study,User,-,,Study/JOL,BUFFER2,529,,,-1,-1,,,,1
62877d5f6a054e53313ac916,zrt78p1yy2,"Mediated Recall_Prolific",1,56,2023-03-04T18:05:57+00:00,0.74147200584412,1,versionA_stim.csv,ReadVersion.csv,Read,Read1,MALT,CHOCOLATE,BUFFER2,Buffer,53,56,Study,User,-,,Study/JOL,BUFFER2,504,,,-1,-1,,,,1
62877d5f6a054e53313ac916,zrt78p1yy2,"Mediated Recall_Prolific",1,57,2023-03-04T18:05:58+00:00,0.74403882026672,1,versionA_stim.csv,ReadVersion.csv,Read,Read1,TOOL,SHED,BUFFER3,Buffer,58,58,Study,User,-,,Study/JOL,BUFFER2,477,,,-1,-1,,,,1
62877d5f6a054e53313ac916,zrt78p1yy2,"Mediated Recall_Prolific",1,58,2023-03-04T18:06:00+00:00,2.337562084198,1,versionA_stim.csv,ReadVersion.csv,Read,Read1,,,,,,0,Instruct,User,-,"You have completed this section. Please press Enter.",Filler_Instruction,Instruct2,1893,,,-1,-1,,,,1
62877d5f6a054e53313ac916,zrt78p1yy2,"Mediated Recall_Prolific",1,59,2023-03-04T18:08:01+00:00,120.52080512047,1,versionA_stim.csv,ReadVersion.csv,Read,Read1,,,,,,0,FreeRecall,120,120,"Please list the 50 US states in alphabetical order. The task will automatically advance to the next screen after two minutes.",,Filler1,120004,"Alabama Alaska Arkansas California Connecticut Delaware Florida Georgia Illinois Indiana Kentucky Massachusetts Mississippi Missouri Rhode Island New Hampshire Nex New York North Carolina Ohio South Carolina Tennessee Texas Vermont Virginia West Virginia",0,3872,119423,0,0,,1
62877d5f6a054e53313ac916,zrt78p1yy2,"Mediated Recall_Prolific",1,60,2023-03-04T18:08:37+00:00,35.901928901672,1,versionA_stim.csv,ReadVersion.csv,Read,Read1,,,,,,0,Instruct,-,10,"You will now be presented with the first word from each of the previously studied item pairs. Please type the missing word. If you do not know the word, you may guess or press Enter to skip forward to the next pair.",,Instruct3,35512,,,-1,-1,,,,1
62877d5f6a054e53313ac916,zrt78p1yy2,"Mediated Recall_Prolific",1,61,2023-03-04T18:08:43+00:00,6.4286699295044,1,versionA_stim.csv,ReadVersion.csv,Read,Read1,SOON,BELT,Study1,U,46,46,Test,User,-,,Recall,Recall1,5989,Blanket,54.545454545455,3843,5161,0,0,,1
62877d5f6a054e53313ac916,zrt78p1yy2,"Mediated Recall_Prolific",1,62,2023-03-04T18:08:47+00:00,4.2436370849609,1,versionA_stim.csv,ReadVersion.csv,Read,Read1,SHELL,SHAKE,Study1,U,43,50,Test,User,-,,Recall,Recall1,3922,hard,44.444444444444,2519,3500,0,0,,1
62877d5f6a054e53313ac916,zrt78p1yy2,"Mediated Recall_Prolific",1,63,2023-03-04T18:08:54+00:00,6.3072619438171,1,versionA_stim.csv,ReadVersion.csv,Read,Read1,NAP,SLEEP,Study1,F,29,20,Test,User,-,,Recall,Recall1,6007,Bed,25,2349,5520,0,0,,1
62877d5f6a054e53313ac916,zrt78p1yy2,"Mediated Recall_Prolific",1,64,2023-03-04T18:08:58+00:00,4.629536151886,1,versionA_stim.csv,ReadVersion.csv,Read,Read1,VEHICLE,CHARM,Study1,U,40,47,Test,User,-,,Recall,Recall1,4128,Driveway,15.384615384615,1742,3827,0,0,,1
62877d5f6a054e53313ac916,zrt78p1yy2,"Mediated Recall_Prolific",1,65,2023-03-04T18:09:03+00:00,4.3508749008179,1,versionA_stim.csv,ReadVersion.csv,Read,Read1,TEMPERATURE,MORNING,Study1,U,48,28,Test,User,-,,Recall,Recall1,3894,weather,14.285714285714,2984,3579,0,0,,1
62877d5f6a054e53313ac916,zrt78p1yy2,"Mediated Recall_Prolific",1,66,2023-03-04T18:09:06+00:00,3.0626740455627,1,versionA_stim.csv,ReadVersion.csv,Read,Read1,HARD,COTTON,Study1,M,20,45,Test,User,-,,Recall,Recall1,2766,shell,0,2086,2580,0,0,,1
62877d5f6a054e53313ac916,zrt78p1yy2,"Mediated Recall_Prolific",1,67,2023-03-04T18:09:08+00:00,2.122330904007,1,versionA_stim.csv,ReadVersion.csv,Read,Read1,LISTEN,FICTION,Study1,U,44,14,Test,User,-,,Recall,Recall1,1681,speak,0,1155,1498,0,0,,1
62877d5f6a054e53313ac916,zrt78p1yy2,"Mediated Recall_Prolific",1,68,2023-03-04T18:09:11+00:00,3.2132129669189,1,versionA_stim.csv,ReadVersion.csv,Read,Read1,BEACH,BOX,Study1,M,7,11,Test,User,-,,Recall,Recall1,2948,weather,0,1911,2586,0,0,,1
62877d5f6a054e53313ac916,zrt78p1yy2,"Mediated Recall_Prolific",1,69,2023-03-04T18:09:14+00:00,3.2655639648438,1,versionA_stim.csv,ReadVersion.csv,Read,Read1,KEYS,ROD,Study1,U,45,30,Test,User,-,,Recall,Recall1,2987,stool,25,2335,2838,0,0,,1
62877d5f6a054e53313ac916,zrt78p1yy2,"Mediated Recall_Prolific",1,70,2023-03-04T18:09:18+00:00,3.310455083847,1,versionA_stim.csv,ReadVersion.csv,Read,Read1,CRACKLE,ELECTION,Study1,U,39,10,Test,User,-,,Recall,Recall1,3023,pop,18.181818181818,1251,2839,0,0,,1
62877d5f6a054e53313ac916,zrt78p1yy2,"Mediated Recall_Prolific",1,71,2023-03-04T18:09:21+00:00,2.8202300071716,1,versionA_stim.csv,ReadVersion.csv,Read,Read1,HYGIENE,CLEAN,Study1,F,28,29,Test,User,-,,Recall,Recall1,2542,toothbrush,0,1325,2336,0,0,,1
62877d5f6a054e53313ac916,zrt78p1yy2,"Mediated Recall_Prolific",1,72,2023-03-04T18:09:23+00:00,2.6027870178223,1,versionA_stim.csv,ReadVersion.csv,Read,Read1,CRY,BOTTLE,Study1,M,16,33,Test,User,-,,Recall,Recall1,2344,bottle,100,1720,2248,1,1,,1
62877d5f6a054e53313ac916,zrt78p1yy2,"Mediated Recall_Prolific",1,73,2023-03-04T18:09:25+00:00,2.0217730998993,1,versionA_stim.csv,ReadVersion.csv,Read,Read1,MULE,DONKEY,Study1,F,30,26,Test,User,-,,Recall,Recall1,1551,donkey,100,915,1420,1,1,,1
62877d5f6a054e53313ac916,zrt78p1yy2,"Mediated Recall_Prolific",1,74,2023-03-04T18:09:30+00:00,5.0840239524841,1,versionA_stim.csv,ReadVersion.csv,Read,Read1,TREE,SYRUP,Study1,M,11,48,Test,User,-,,Recall,Recall1,4670,grass,20,3741,4493,0,0,,1
62877d5f6a054e53313ac916,zrt78p1yy2,"Mediated Recall_Prolific",1,75,2023-03-04T18:09:38+00:00,8.191575050354,1,versionA_stim.csv,ReadVersion.csv,Read,Read1,MIRROR,MAROON,Study1,U,36,23,Test,User,-,,Recall,Recall1,7747,wall,20,5244,7593,0,0,,1
62877d5f6a054e53313ac916,zrt78p1yy2,"Mediated Recall_Prolific",1,76,2023-03-04T18:09:42+00:00,3.7661828994751,1,versionA_stim.csv,ReadVersion.csv,Read,Read1,CAKE,HAND,Study1,U,49,43,Test,User,-,,Recall,Recall1,3315,birthday,33.333333333333,1280,3061,0,0,,1
62877d5f6a054e53313ac916,zrt78p1yy2,"Mediated Recall_Prolific",1,77,2023-03-04T18:09:47+00:00,5.2783830165863,1,versionA_stim.csv,ReadVersion.csv,Read,Read1,TUNA,FISH,Study1,F,35,44,Test,User,-,,Recall,Recall1,4926,sandwich,33.333333333333,1286,3462,0,0,,1
62877d5f6a054e53313ac916,zrt78p1yy2,"Mediated Recall_Prolific",1,78,2023-03-04T18:09:50+00:00,2.9801540374756,1,versionA_stim.csv,ReadVersion.csv,Read,Read1,BIRTHDAY,PIE,Study1,M,9,27,Test,User,-,,Recall,Recall1,2541,cake,28.571428571429,1033,1396,0,0,,1
62877d5f6a054e53313ac916,zrt78p1yy2,"Mediated Recall_Prolific",1,79,2023-03-04T18:09:53+00:00,2.4741940498352,1,versionA_stim.csv,ReadVersion.csv,Read,Read1,SIP,DRINK,Study1,F,32,9,Test,User,-,,Recall,Recall1,2079,beer,22.222222222222,1403,1815,0,0,,1
62877d5f6a054e53313ac916,zrt78p1yy2,"Mediated Recall_Prolific",1,80,2023-03-04T18:09:55+00:00,2.1936509609222,1,versionA_stim.csv,ReadVersion.csv,Read,Read1,CIRCLE,DANCE,Study1,M,13,13,Test,User,-,,Recall,Recall1,1749,shape,40,1288,1643,0,0,,1
62877d5f6a054e53313ac916,zrt78p1yy2,"Mediated Recall_Prolific",1,81,2023-03-04T18:09:59+00:00,4.037672996521,1,versionA_stim.csv,ReadVersion.csv,Read,Read1,SCALP,HEAD,Study1,F,23,41,Test,User,-,,Recall,Recall1,3619,head,100,3263,3499,1,1,,1
62877d5f6a054e53313ac916,zrt78p1yy2,"Mediated Recall_Prolific",1,82,2023-03-04T18:10:04+00:00,4.8702828884125,1,versionA_stim.csv,ReadVersion.csv,Read,Read1,WAR,QUIET,Study1,M,8,19,Test,User,-,,Recall,Recall1,4585,death,40,3120,4365,0,0,,1
62877d5f6a054e53313ac916,zrt78p1yy2,"Mediated Recall_Prolific",1,83,2023-03-04T18:10:08+00:00,3.9573061466217,1,versionA_stim.csv,ReadVersion.csv,Read,Read1,MEAT,KEYS,Study1,U,41,21,Test,User,-,,Recall,Recall1,3663,keys,100,3027,3476,1,1,,1
62877d5f6a054e53313ac916,zrt78p1yy2,"Mediated Recall_Prolific",1,84,2023-03-04T18:10:13+00:00,5.0985088348389,1,versionA_stim.csv,ReadVersion.csv,Read,Read1,WAGE,MONEY,Study1,F,22,32,Test,User,-,,Recall,Recall1,4696,money,100,1952,2349,1,1,,1
62877d5f6a054e53313ac916,zrt78p1yy2,"Mediated Recall_Prolific",1,85,2023-03-04T18:10:16+00:00,3.0085990428925,1,versionA_stim.csv,ReadVersion.csv,Read,Read1,WEDDING,FINGER,Study1,M,17,35,Test,User,-,,Recall,Recall1,2557,bell,20,2165,2484,0,0,,1
62877d5f6a054e53313ac916,zrt78p1yy2,"Mediated Recall_Prolific",1,86,2023-03-04T18:10:23+00:00,6.4302730560303,1,versionA_stim.csv,ReadVersion.csv,Read,Read1,WORD,SENTENCE,Study1,F,27,17,Test,User,-,,Recall,Recall1,6017,speak,30.769230769231,5524,5870,0,0,,1
62877d5f6a054e53313ac916,zrt78p1yy2,"Mediated Recall_Prolific",1,87,2023-03-04T18:10:27+00:00,4.4934759140015,1,versionA_stim.csv,ReadVersion.csv,Read,Read1,STRETCH,CLOTH,Study1,U,37,8,Test,User,-,,Recall,Recall1,4103,leg,25,3851,3977,0,0,,1
62877d5f6a054e53313ac916,zrt78p1yy2,"Mediated Recall_Prolific",1,88,2023-03-04T18:10:29+00:00,2.4204950332642,1,versionA_stim.csv,ReadVersion.csv,Read,Read1,AFFECTION,LOVE,Study1,F,31,24,Test,User,-,,Recall,Recall1,1812,love,100,1423,1718,1,1,,1
62877d5f6a054e53313ac916,zrt78p1yy2,"Mediated Recall_Prolific",1,89,2023-03-04T18:10:33+00:00,3.4330821037292,1,versionA_stim.csv,ReadVersion.csv,Read,Read1,MULE,DONKEY,Study1,F,24,15,Test,User,-,,Recall,Recall1,3002,donkey,100,891,2844,1,1,,1
62877d5f6a054e53313ac916,zrt78p1yy2,"Mediated Recall_Prolific",1,90,2023-03-04T18:10:37+00:00,4.0535669326782,1,versionA_stim.csv,ReadVersion.csv,Read,Read1,SIGN,TICK,Study1,U,47,51,Test,User,-,,Recall,Recall1,3764,stop,25,3416,3615,0,0,,1
62877d5f6a054e53313ac916,zrt78p1yy2,"Mediated Recall_Prolific",1,91,2023-03-04T18:10:44+00:00,7.0498790740967,1,versionA_stim.csv,ReadVersion.csv,Read,Read1,HORSE,WHEEL,Study1,M,14,31,Test,User,-,,Recall,Recall1,6549,wagon,20,3120,6369,0,0,,1
62877d5f6a054e53313ac916,zrt78p1yy2,"Mediated Recall_Prolific",1,92,2023-03-04T18:10:47+00:00,2.5774178504944,1,versionA_stim.csv,ReadVersion.csv,Read,Read1,LITTER,TRASH,Study1,F,21,38,Test,User,-,,Recall,Recall1,2309,trash,100,1741,2181,1,1,,1
62877d5f6a054e53313ac916,zrt78p1yy2,"Mediated Recall_Prolific",1,93,2023-03-04T18:10:53+00:00,6.2455079555511,1,versionA_stim.csv,ReadVersion.csv,Read,Read1,ORCHID,FLOWER,Study1,F,34,7,Test,User,-,,Recall,Recall1,5829,leaves,33.333333333333,2592,5538,0,0,,1
62877d5f6a054e53313ac916,zrt78p1yy2,"Mediated Recall_Prolific",1,94,2023-03-04T18:10:58+00:00,5.6485080718994,1,versionA_stim.csv,ReadVersion.csv,Read,Read1,CEILING,CARPET,Study1,M,15,18,Test,User,-,,Recall,Recall1,5227,carpet,100,1181,5004,1,1,,1
62877d5f6a054e53313ac916,zrt78p1yy2,"Mediated Recall_Prolific",1,95,2023-03-04T18:11:05+00:00,6.164803981781,1,versionA_stim.csv,ReadVersion.csv,Read,Read1,MAZE,PHONE,Study1,U,42,39,Test,User,-,,Recall,Recall1,5873,solve,40,5298,5778,0,0,,1
62877d5f6a054e53313ac916,zrt78p1yy2,"Mediated Recall_Prolific",1,96,2023-03-04T18:11:08+00:00,3.3069081306458,1,versionA_stim.csv,ReadVersion.csv,Read,Read1,CREDIT,CARD,Study1,F,33,25,Test,User,-,,Recall,Recall1,2882,card,100,2404,2760,1,1,,1
62877d5f6a054e53313ac916,zrt78p1yy2,"Mediated Recall_Prolific",1,97,2023-03-04T18:11:13+00:00,5.5424439907074,1,versionA_stim.csv,ReadVersion.csv,Read,Read1,FUZZY,BANG,Study1,U,50,42,Test,User,-,,Recall,Recall1,5101,image,44.444444444444,4636,4886,0,0,,1
62877d5f6a054e53313ac916,zrt78p1yy2,"Mediated Recall_Prolific",1,98,2023-03-04T18:11:17+00:00,3.3116688728333,1,versionA_stim.csv,ReadVersion.csv,Read,Read1,LION,STRIPES,Study1,M,6,12,Test,User,-,,Recall,Recall1,2912,cat,20,2479,2694,0,0,,1
62877d5f6a054e53313ac916,zrt78p1yy2,"Mediated Recall_Prolific",1,99,2023-03-04T18:11:21+00:00,4.547621011734,1,versionA_stim.csv,ReadVersion.csv,Read,Read1,ROOT,PLANT,Study1,F,25,22,Test,User,-,,Recall,Recall1,4247,tree,22.222222222222,2998,4142,0,0,,1
62877d5f6a054e53313ac916,zrt78p1yy2,"Mediated Recall_Prolific",1,100,2023-03-04T18:11:23+00:00,1.7081439495087,1,versionA_stim.csv,ReadVersion.csv,Read,Read1,SWAN,BIRD,Study1,F,26,16,Test,User,-,,Recall,Recall1,1413,song,0,1107,1298,0,0,,1
62877d5f6a054e53313ac916,zrt78p1yy2,"Mediated Recall_Prolific",1,101,2023-03-04T18:11:27+00:00,4.2873950004578,1,versionA_stim.csv,ReadVersion.csv,Read,Read1,ROUGH,SILK,Study1,M,10,49,Test,User,-,,Recall,Recall1,3915,sand,25,2373,2681,0,0,,1
62877d5f6a054e53313ac916,zrt78p1yy2,"Mediated Recall_Prolific",1,102,2023-03-04T18:11:31+00:00,3.6601421833038,1,versionA_stim.csv,ReadVersion.csv,Read,Read1,TOOTH,HAIR,Study1,M,19,36,Test,User,-,,Recall,Recall1,3292,hygiene,36.363636363636,1867,3000,0,0,,1
62877d5f6a054e53313ac916,zrt78p1yy2,"Mediated Recall_Prolific",1,103,2023-03-04T18:11:35+00:00,3.658684015274,1,versionA_stim.csv,ReadVersion.csv,Read,Read1,BAT,BOUNCE,Study1,M,12,40,Test,User,-,,Recall,Recall1,3272,ball,20,2699,3113,0,0,,1
62877d5f6a054e53313ac916,zrt78p1yy2,"Mediated Recall_Prolific",1,104,2023-03-04T18:11:38+00:00,3.1009027957916,1,versionA_stim.csv,ReadVersion.csv,Read,Read1,DAY,DARK,Study1,M,18,37,Test,User,-,,Recall,Recall1,2668,time,0,2185,2408,0,0,,1
62877d5f6a054e53313ac916,zrt78p1yy2,"Mediated Recall_Prolific",1,105,2023-03-04T18:11:42+00:00,4.4005331993103,1,versionA_stim.csv,ReadVersion.csv,Read,Read1,GIVE,STEAK,Study1,U,38,34,Test,User,-,,Recall,Recall1,4087,present,16.666666666667,3342,3891,0,0,,1
62877d5f6a054e53313ac916,zrt78p1yy2,"Mediated Recall_Prolific",1,106,2023-03-04T18:12:59+00:00,76.939512968063,1,versionA_stim.csv,ReadVersion.csv,Read,Read1,,,,,,0,Instruct,-,10,"You will now be presented with a new set of word pairs. Please study each pair. Remember that your memory will be tested! When finished, press Enter to move to the next pair.",Initial_Instruct,Instruct4,76399,,,-1,-1,,,,0.938
62877d5f6a054e53313ac916,zrt78p1yy2,"Mediated Recall_Prolific",1,107,2023-03-04T18:13:01+00:00,1.7647440433502,1,versionA_stim.csv,ReadVersion.csv,Read,Read1,,,,,,0,Instruct,User,-,"Press Enter when you are readty to begin",,Instruct11,1247,,,-1,-1,,,,1
62877d5f6a054e53313ac916,zrt78p1yy2,"Mediated Recall_Prolific",1,108,2023-03-04T18:13:03+00:00,2.392059803009,1,versionA_stim.csv,ReadVersion.csv,Read,Read1,NOODLE,STRING,BUFFER4,Buffer,107,107,Study,User,-,,Study/JOL,BUFFER2,2099,,,-1,-1,,,,1
62877d5f6a054e53313ac916,zrt78p1yy2,"Mediated Recall_Prolific",1,109,2023-03-04T18:13:05+00:00,2.078113079071,1,versionA_stim.csv,ReadVersion.csv,Read,Read1,CARROT,POTATO,BUFFER4,Buffer,106,111,Study,User,-,,Study/JOL,BUFFER2,1635,,,-1,-1,,,,1
62877d5f6a054e53313ac916,zrt78p1yy2,"Mediated Recall_Prolific",1,110,2023-03-04T18:13:07+00:00,1.830146074295,1,versionA_stim.csv,ReadVersion.csv,Read,Read1,SHERRIF,POLICE,BUFFER2,Buffer,52,52,Study,User,-,,Study/JOL,BUFFER2,1570,,,-1,-1,,,,1
62877d5f6a054e53313ac916,zrt78p1yy2,"Mediated Recall_Prolific",1,111,2023-03-04T18:13:09+00:00,1.5491378307343,1,versionA_stim.csv,ReadVersion.csv,Read,Read1,SPRING,MARCH,BUFFER3,Buffer,59,61,Study,User,-,,Study/JOL,BUFFER2,1170,,,-1,-1,,,,1
62877d5f6a054e53313ac916,zrt78p1yy2,"Mediated Recall_Prolific",1,112,2023-03-04T18:13:17+00:00,8.5933051109314,1,versionA_stim.csv,ReadVersion.csv,Read,Read1,ICE,FROZEN,BUFFER4,Buffer,109,108,Study,User,-,,Study/JOL,BUFFER2,8169,,,-1,-1,,,,1
62877d5f6a054e53313ac916,zrt78p1yy2,"Mediated Recall_Prolific",1,113,2023-03-04T18:13:19+00:00,1.8505489826202,1,versionA_stim.csv,ReadVersion.csv,Read,Read1,RAKE,SEED,Study2,M,69,78,Study,User,-,,Study/JOL,"Study Phase2",1435,,,-1,-1,,,,1
62877d5f6a054e53313ac916,zrt78p1yy2,"Mediated Recall_Prolific",1,114,2023-03-04T18:13:20+00:00,1.2254660129547,1,versionA_stim.csv,ReadVersion.csv,Read,Read1,BENCH,HORN,Study2,U,98,94,Study,User,-,,Study/JOL,"Study Phase2",809,,,-1,-1,,,,1
62877d5f6a054e53313ac916,zrt78p1yy2,"Mediated Recall_Prolific",1,115,2023-03-04T18:13:22+00:00,1.3354918956757,1,versionA_stim.csv,ReadVersion.csv,Read,Read1,BOTH,OUNCE,Study2,U,102,85,Study,User,-,,Study/JOL,"Study Phase2",955,,,-1,-1,,,,1
62877d5f6a054e53313ac916,zrt78p1yy2,"Mediated Recall_Prolific",1,116,2023-03-04T18:13:23+00:00,1.3401041030884,1,versionA_stim.csv,ReadVersion.csv,Read,Read1,SOAP,DRINK,Study2,M,67,74,Study,User,-,,Study/JOL,"Study Phase2",1057,,,-1,-1,,,,1
62877d5f6a054e53313ac916,zrt78p1yy2,"Mediated Recall_Prolific",1,117,2023-03-04T18:13:24+00:00,1.3750290870667,1,versionA_stim.csv,ReadVersion.csv,Read,Read1,HERD,COW,Study2,F,88,88,Study,User,-,,Study/JOL,"Study Phase2",1003,,,-1,-1,,,,1
62877d5f6a054e53313ac916,zrt78p1yy2,"Mediated Recall_Prolific",1,118,2023-03-04T18:13:26+00:00,1.7589190006256,1,versionA_stim.csv,ReadVersion.csv,Read,Read1,HAPPY,CAR,Study2,U,92,80,Study,User,-,,Study/JOL,"Study Phase2",1470,,,-1,-1,,,,1
62877d5f6a054e53313ac916,zrt78p1yy2,"Mediated Recall_Prolific",1,119,2023-03-04T18:13:27+00:00,1.0879108905792,1,versionA_stim.csv,ReadVersion.csv,Read,Read1,TRAP,CAVE,Study2,M,70,75,Study,User,-,,Study/JOL,"Study Phase2",809,,,-1,-1,,,,1
62877d5f6a054e53313ac916,zrt78p1yy2,"Mediated Recall_Prolific",1,120,2023-03-04T18:13:29+00:00,1.3563411235809,1,versionA_stim.csv,ReadVersion.csv,Read,Read1,FEUD,FIGHT,Study2,F,86,89,Study,User,-,,Study/JOL,"Study Phase2",1023,,,-1,-1,,,,1
62877d5f6a054e53313ac916,zrt78p1yy2,"Mediated Recall_Prolific",1,121,2023-03-04T18:13:30+00:00,1.8423998355865,1,versionA_stim.csv,ReadVersion.csv,Read,Read1,ATTIRE,CLOTHES,Study2,F,79,76,Study,User,-,,Study/JOL,"Study Phase2",1598,,,-1,-1,,,,1
62877d5f6a054e53313ac916,zrt78p1yy2,"Mediated Recall_Prolific",1,122,2023-03-04T18:13:31+00:00,0.9266471862793,1,versionA_stim.csv,ReadVersion.csv,Read,Read1,HORNET,STING,Study2,F,85,66,Study,User,-,,Study/JOL,"Study Phase2",689,,,-1,-1,,,,1
62877d5f6a054e53313ac916,zrt78p1yy2,"Mediated Recall_Prolific",1,123,2023-03-04T18:13:32+00:00,0.93883991241455,1,versionA_stim.csv,ReadVersion.csv,Read,Read1,WASP,BUG,Study2,F,89,97,Study,User,-,,Study/JOL,"Study Phase2",516,,,-1,-1,,,,1
62877d5f6a054e53313ac916,zrt78p1yy2,"Mediated Recall_Prolific",1,124,2023-03-04T18:13:33+00:00,0.97791385650635,1,versionA_stim.csv,ReadVersion.csv,Read,Read1,ARTERY,BRONZE,Study2,U,103,99,Study,User,-,,Study/JOL,"Study Phase2",739,,,-1,-1,,,,1
62877d5f6a054e53313ac916,zrt78p1yy2,"Mediated Recall_Prolific",1,125,2023-03-04T18:13:35+00:00,1.5635051727295,1,versionA_stim.csv,ReadVersion.csv,Read,Read1,SUMMER,SNOW,Study2,M,61,104,Study,User,-,,Study/JOL,"Study Phase2",1334,,,-1,-1,,,,1
62877d5f6a054e53313ac916,zrt78p1yy2,"Mediated Recall_Prolific",1,126,2023-03-04T18:13:36+00:00,1.2159118652344,1,versionA_stim.csv,ReadVersion.csv,Read,Read1,INCENSE,SMELL,Study2,F,83,63,Study,User,-,,Study/JOL,"Study Phase2",966,,,-1,-1,,,,1
62877d5f6a054e53313ac916,zrt78p1yy2,"Mediated Recall_Prolific",1,127,2023-03-04T18:13:37+00:00,1.3072180747986,1,versionA_stim.csv,ReadVersion.csv,Read,Read1,MIRROR,CHILDREN,Study2,U,104,73,Study,User,-,,Study/JOL,"Study Phase2",874,,,-1,-1,,,,1
62877d5f6a054e53313ac916,zrt78p1yy2,"Mediated Recall_Prolific",1,128,2023-03-04T18:13:39+00:00,1.1379890441895,1,versionA_stim.csv,ReadVersion.csv,Read,Read1,CACTUS,PLANT,Study2,F,76,77,Study,User,-,,Study/JOL,"Study Phase2",840,,,-1,-1,,,,1
62877d5f6a054e53313ac916,zrt78p1yy2,"Mediated Recall_Prolific",1,129,2023-03-04T18:13:40+00:00,1.1357219219208,1,versionA_stim.csv,ReadVersion.csv,Read,Read1,CHOP,CUT,Study2,F,77,90,Study,User,-,,Study/JOL,"Study Phase2",867,,,-1,-1,,,,1
62877d5f6a054e53313ac916,zrt78p1yy2,"Mediated Recall_Prolific",1,130,2023-03-04T18:13:41+00:00,1.0527760982513,1,versionA_stim.csv,ReadVersion.csv,Read,Read1,ART,WOLF,Study2,U,93,93,Study,User,-,,Study/JOL,"Study Phase2",813,,,-1,-1,,,,1
62877d5f6a054e53313ac916,zrt78p1yy2,"Mediated Recall_Prolific",1,131,2023-03-04T18:13:42+00:00,1.1496069431305,1,versionA_stim.csv,ReadVersion.csv,Read,Read1,RAZOR,MUSCLE,Study2,M,75,65,Study,User,-,,Study/JOL,"Study Phase2",751,,,-1,-1,,,,1
62877d5f6a054e53313ac916,zrt78p1yy2,"Mediated Recall_Prolific",1,132,2023-03-04T18:13:43+00:00,0.8378438949585,1,versionA_stim.csv,ReadVersion.csv,Read,Read1,EYES,SMELL,Study2,M,65,100,Study,User,-,,Study/JOL,"Study Phase2",580,,,-1,-1,,,,1
62877d5f6a054e53313ac916,zrt78p1yy2,"Mediated Recall_Prolific",1,133,2023-03-04T18:13:44+00:00,1.1871910095215,1,versionA_stim.csv,ReadVersion.csv,Read,Read1,LEAGUE,BASEBALL,Study2,F,84,102,Study,User,-,,Study/JOL,"Study Phase2",845,,,-1,-1,,,,1
62877d5f6a054e53313ac916,zrt78p1yy2,"Mediated Recall_Prolific",1,134,2023-03-04T18:13:45+00:00,1.094544172287,1,versionA_stim.csv,ReadVersion.csv,Read,Read1,CHILL,COLD,Study2,F,87,91,Study,User,-,,Study/JOL,"Study Phase2",729,,,-1,-1,,,,1
62877d5f6a054e53313ac916,zrt78p1yy2,"Mediated Recall_Prolific",1,135,2023-03-04T18:13:46+00:00,1.0513248443604,1,versionA_stim.csv,ReadVersion.csv,Read,Read1,NURSE,LAWYER,Study2,M,66,96,Study,User,-,,Study/JOL,"Study Phase2",760,,,-1,-1,,,,1
62877d5f6a054e53313ac916,zrt78p1yy2,"Mediated Recall_Prolific",1,136,2023-03-04T18:13:47+00:00,0.84766912460327,1,versionA_stim.csv,ReadVersion.csv,Read,Read1,GRILL,THIGH,Study2,M,72,81,Study,User,-,,Study/JOL,"Study Phase2",421,,,-1,-1,,,,1
62877d5f6a054e53313ac916,zrt78p1yy2,"Mediated Recall_Prolific",1,137,2023-03-04T18:13:48+00:00,0.98459386825562,1,versionA_stim.csv,ReadVersion.csv,Read,Read1,DIETARY,SACK,Study2,U,97,71,Study,User,-,,Study/JOL,"Study Phase2",641,,,-1,-1,,,,1
62877d5f6a054e53313ac916,zrt78p1yy2,"Mediated Recall_Prolific",1,138,2023-03-04T18:13:49+00:00,0.91396903991699,1,versionA_stim.csv,ReadVersion.csv,Read,Read1,STRONG,ACCIDENT,Study2,U,94,87,Study,User,-,,Study/JOL,"Study Phase2",541,,,-1,-1,,,,1
62877d5f6a054e53313ac916,zrt78p1yy2,"Mediated Recall_Prolific",1,139,2023-03-04T18:13:50+00:00,0.82161402702332,1,versionA_stim.csv,ReadVersion.csv,Read,Read1,KING,VASE,Study2,U,91,84,Study,User,-,,Study/JOL,"Study Phase2",468,,,-1,-1,,,,1
62877d5f6a054e53313ac916,zrt78p1yy2,"Mediated Recall_Prolific",1,140,2023-03-04T18:13:51+00:00,1.2598259449005,1,versionA_stim.csv,ReadVersion.csv,Read,Read1,DOCUMENT,PAPER,Study2,F,82,79,Study,User,-,,Study/JOL,"Study Phase2",885,,,-1,-1,,,,1
62877d5f6a054e53313ac916,zrt78p1yy2,"Mediated Recall_Prolific",1,141,2023-03-04T18:13:52+00:00,1.0023989677429,1,versionA_stim.csv,ReadVersion.csv,Read,Read1,OVEN,BASKET,Study2,M,71,92,Study,User,-,,Study/JOL,"Study Phase2",592,,,-1,-1,,,,1
62877d5f6a054e53313ac916,zrt78p1yy2,"Mediated Recall_Prolific",1,142,2023-03-04T18:13:53+00:00,0.90044903755188,1,versionA_stim.csv,ReadVersion.csv,Read,Read1,VALLEY,PEAK,Study2,M,73,69,Study,User,-,,Study/JOL,"Study Phase2",638,,,-1,-1,,,,1
62877d5f6a054e53313ac916,zrt78p1yy2,"Mediated Recall_Prolific",1,143,2023-03-04T18:13:54+00:00,0.92535495758057,1,versionA_stim.csv,ReadVersion.csv,Read,Read1,SICK,HIDE,Study2,U,100,105,Study,User,-,,Study/JOL,"Study Phase2",568,,,-1,-1,,,,1
62877d5f6a054e53313ac916,zrt78p1yy2,"Mediated Recall_Prolific",1,144,2023-03-04T18:13:55+00:00,0.99401116371155,1,versionA_stim.csv,ReadVersion.csv,Read,Read1,PANTS,COLLAR,Study2,M,63,72,Study,User,-,,Study/JOL,"Study Phase2",766,,,-1,-1,,,,1
62877d5f6a054e53313ac916,zrt78p1yy2,"Mediated Recall_Prolific",1,145,2023-03-04T18:13:56+00:00,0.84456896781921,1,versionA_stim.csv,ReadVersion.csv,Read,Read1,SUGAR,RIDDLE,Study2,U,95,83,Study,User,-,,Study/JOL,"Study Phase2",495,,,-1,-1,,,,1
62877d5f6a054e53313ac916,zrt78p1yy2,"Mediated Recall_Prolific",1,146,2023-03-04T18:13:56+00:00,0.85236191749573,1,versionA_stim.csv,ReadVersion.csv,Read,Read1,SCHOOL,STOP,Study2,M,62,86,Study,User,-,,Study/JOL,"Study Phase2",620,,,-1,-1,,,,1
62877d5f6a054e53313ac916,zrt78p1yy2,"Mediated Recall_Prolific",1,147,2023-03-04T18:13:57+00:00,0.85374307632446,1,versionA_stim.csv,ReadVersion.csv,Read,Read1,HEAVY,FEATHER,Study2,M,68,67,Study,User,-,,Study/JOL,"Study Phase2",596,,,-1,-1,,,,1
62877d5f6a054e53313ac916,zrt78p1yy2,"Mediated Recall_Prolific",1,148,2023-03-04T18:13:58+00:00,0.99353003501892,1,versionA_stim.csv,ReadVersion.csv,Read,Read1,DEATH,BUSINESS,Study2,U,99,106,Study,User,-,,Study/JOL,"Study Phase2",588,,,-1,-1,,,,1
62877d5f6a054e53313ac916,zrt78p1yy2,"Mediated Recall_Prolific",1,149,2023-03-04T18:13:59+00:00,0.91445994377136,1,versionA_stim.csv,ReadVersion.csv,Read,Read1,CHISEL,HAMMER,Study2,F,78,82,Study,User,-,,Study/JOL,"Study Phase2",549,,,-1,-1,,,,1
62877d5f6a054e53313ac916,zrt78p1yy2,"Mediated Recall_Prolific",1,150,2023-03-04T18:14:00+00:00,0.88000011444092,1,versionA_stim.csv,ReadVersion.csv,Read,Read1,BLAZE,FIRE,Study2,F,81,98,Study,User,-,,Study/JOL,"Study Phase2",527,,,-1,-1,,,,1
62877d5f6a054e53313ac916,zrt78p1yy2,"Mediated Recall_Prolific",1,151,2023-03-04T18:14:01+00:00,0.8340117931366,1,versionA_stim.csv,ReadVersion.csv,Read,Read1,REALITY,ISLAND,Study2,M,64,68,Study,User,-,,Study/JOL,"Study Phase2",458,,,-1,-1,,,,1
62877d5f6a054e53313ac916,zrt78p1yy2,"Mediated Recall_Prolific",1,152,2023-03-04T18:14:02+00:00,0.81018114089966,1,versionA_stim.csv,ReadVersion.csv,Read,Read1,WINDOW,KNOB,Study2,M,74,95,Study,User,-,,Study/JOL,"Study Phase2",556,,,-1,-1,,,,1
62877d5f6a054e53313ac916,zrt78p1yy2,"Mediated Recall_Prolific",1,153,2023-03-04T18:14:03+00:00,1.0377159118652,1,versionA_stim.csv,ReadVersion.csv,Read,Read1,BRIDGE,WATER,Study2,F,90,101,Study,User,-,,Study/JOL,"Study Phase2",657,,,-1,-1,,,,1
62877d5f6a054e53313ac916,zrt78p1yy2,"Mediated Recall_Prolific",1,154,2023-03-04T18:14:05+00:00,2.5494360923767,1,versionA_stim.csv,ReadVersion.csv,Read,Read1,LEASE,TOIL,Study2,U,101,70,Study,User,-,,Study/JOL,"Study Phase2",2322,,,-1,-1,,,,1
62877d5f6a054e53313ac916,zrt78p1yy2,"Mediated Recall_Prolific",1,155,2023-03-04T18:14:06+00:00,1.0676209926605,1,versionA_stim.csv,ReadVersion.csv,Read,Read1,PUSH,CLUTTER,Study2,U,96,62,Study,User,-,,Study/JOL,"Study Phase2",646,,,-1,-1,,,,1
62877d5f6a054e53313ac916,zrt78p1yy2,"Mediated Recall_Prolific",1,156,2023-03-04T18:14:07+00:00,0.83213591575623,1,versionA_stim.csv,ReadVersion.csv,Read,Read1,CHERRY,RED,Study2,F,80,103,Study,User,-,,Study/JOL,"Study Phase2",419,,,-1,-1,,,,1
62877d5f6a054e53313ac916,zrt78p1yy2,"Mediated Recall_Prolific",1,157,2023-03-04T18:14:08+00:00,0.72656607627869,1,versionA_stim.csv,ReadVersion.csv,Read,Read1,CASH,LEG,Study2,U,105,64,Study,User,-,,Study/JOL,"Study Phase2",333,,,-1,-1,,,,1
62877d5f6a054e53313ac916,zrt78p1yy2,"Mediated Recall_Prolific",1,158,2023-03-04T18:14:09+00:00,0.95953297615051,1,versionA_stim.csv,ReadVersion.csv,Read,Read1,GEESE,GOOSE,BUFFER2,Buffer,51,55,Study,User,-,,Study/JOL,BUFFER2,526,,,-1,-1,,,,1
62877d5f6a054e53313ac916,zrt78p1yy2,"Mediated Recall_Prolific",1,159,2023-03-04T18:14:10+00:00,0.85991501808167,1,versionA_stim.csv,ReadVersion.csv,Read,Read1,SHRIMP,FISH,BUFFER4,Buffer,108,109,Study,User,-,,Study/JOL,BUFFER2,450,,,-1,-1,,,,1
62877d5f6a054e53313ac916,zrt78p1yy2,"Mediated Recall_Prolific",1,160,2023-03-04T18:14:11+00:00,0.85398602485657,1,versionA_stim.csv,ReadVersion.csv,Read,Read1,DAYS,WEAKS,BUFFER3,Buffer,56,59,Study,User,-,,Study/JOL,BUFFER2,453,,,-1,-1,,,,1
62877d5f6a054e53313ac916,zrt78p1yy2,"Mediated Recall_Prolific",1,161,2023-03-04T18:14:12+00:00,1.1216778755188,1,versionA_stim.csv,ReadVersion.csv,Read,Read1,THING,STUFF,BUFFER2,Buffer,55,54,Study,User,-,,Study/JOL,BUFFER2,769,,,-1,-1,,,,1
62877d5f6a054e53313ac916,zrt78p1yy2,"Mediated Recall_Prolific",1,162,2023-03-04T18:14:13+00:00,0.94733595848083,1,versionA_stim.csv,ReadVersion.csv,Read,Read1,MONTH,YEAR,BUFFER3,Buffer,57,60,Study,User,-,,Study/JOL,BUFFER2,670,,,-1,-1,,,,1
62877d5f6a054e53313ac916,zrt78p1yy2,"Mediated Recall_Prolific",1,163,2023-03-04T18:14:16+00:00,3.3370881080627,1,versionA_stim.csv,ReadVersion.csv,Read,Read1,,,,,,0,Instruct,User,-,"You have completed this section. Please press Enter.",Filler_Instruction,Instruct2,2976,,,-1,-1,,,,1
62877d5f6a054e53313ac916,zrt78p1yy2,"Mediated Recall_Prolific",1,164,2023-03-04T18:16:16+00:00,120.44443106651,1,versionA_stim.csv,ReadVersion.csv,Read,Read1,,,,,,0,FreeRecall,120,120,"Please list the 50 US states in alphabetical order. The task will automatically advance to the next screen after two minutes.",,Filler1,120003,"Alabama Alaska Arizona Arkansas California Colorado Connecticut Delaware Florida Georgia Hawaii Idaho Illinois Indiana Ohio Missouri Mississippi New Hampshire New Mexico Rhode Island North Carolina South Carolina Tennessee Texas Washington Wyoming ",0,2532,110376,0,0,,1
62877d5f6a054e53313ac916,zrt78p1yy2,"Mediated Recall_Prolific",1,165,2023-03-04T18:22:39+00:00,382.94979596138,1,versionA_stim.csv,ReadVersion.csv,Read,Read1,,,,,,0,Instruct,-,10,"You will now be presented with the first word from each of the previously studied item pairs. Please type the missing word. If you do not know the word, you may guess or press Enter to skip forward to the next pair.",,Instruct3,382373,,,-1,-1,,,,1
62877d5f6a054e53313ac916,zrt78p1yy2,"Mediated Recall_Prolific",1,166,2023-03-04T18:22:44+00:00,4.5933289527893,1,versionA_stim.csv,ReadVersion.csv,Read,Read1,STRONG,ACCIDENT,Study2,U,94,87,Test,User,-,,Recall,Recall2,4270,weak,16.666666666667,3124,4111,0,0,,1
62877d5f6a054e53313ac916,zrt78p1yy2,"Mediated Recall_Prolific",1,167,2023-03-04T18:22:55+00:00,10.719805955887,1,versionA_stim.csv,ReadVersion.csv,Read,Read1,SUGAR,RIDDLE,Study2,U,95,83,Test,User,-,,Recall,Recall2,10254,syrup,18.181818181818,9073,9549,0,0,,1
62877d5f6a054e53313ac916,zrt78p1yy2,"Mediated Recall_Prolific",1,168,2023-03-04T18:22:57+00:00,2.4870040416718,1,versionA_stim.csv,ReadVersion.csv,Read,Read1,RAZOR,MUSCLE,Study2,M,75,65,Test,User,-,,Recall,Recall2,2139,blade,36.363636363636,1691,2054,0,0,,1
62877d5f6a054e53313ac916,zrt78p1yy2,"Mediated Recall_Prolific",1,169,2023-03-04T18:23:01+00:00,4.0188341140747,1,versionA_stim.csv,ReadVersion.csv,Read,Read1,DIETARY,SACK,Study2,U,97,71,Test,User,-,,Recall,Recall2,3541,snack,88.888888888889,3041,3403,0,1,,1
62877d5f6a054e53313ac916,zrt78p1yy2,"Mediated Recall_Prolific",1,170,2023-03-04T18:23:07+00:00,6.0779139995575,1,versionA_stim.csv,ReadVersion.csv,Read,Read1,BLAZE,FIRE,Study2,F,81,98,Test,User,-,,Recall,Recall2,5786,fire,100,5406,5680,1,1,,1
62877d5f6a054e53313ac916,zrt78p1yy2,"Mediated Recall_Prolific",1,171,2023-03-04T18:23:17+00:00,10.141665935516,1,versionA_stim.csv,ReadVersion.csv,Read,Read1,SICK,HIDE,Study2,U,100,105,Test,User,-,,Recall,Recall2,9723,hide,100,9444,9637,1,1,,1
62877d5f6a054e53313ac916,zrt78p1yy2,"Mediated Recall_Prolific",1,172,2023-03-04T18:23:21+00:00,3.2644159793854,1,versionA_stim.csv,ReadVersion.csv,Read,Read1,CHILL,COLD,Study2,F,87,91,Test,User,-,,Recall,Recall2,2918,cold,100,2531,2827,1,1,,1
62877d5f6a054e53313ac916,zrt78p1yy2,"Mediated Recall_Prolific",1,173,2023-03-04T18:23:27+00:00,6.2508759498596,1,versionA_stim.csv,ReadVersion.csv,Read,Read1,TRAP,CAVE,Study2,M,70,75,Test,User,-,,Recall,Recall2,5854,cave,100,5401,5753,1,1,,1
62877d5f6a054e53313ac916,zrt78p1yy2,"Mediated Recall_Prolific",1,174,2023-03-04T18:23:32+00:00,5.4539461135864,1,versionA_stim.csv,ReadVersion.csv,Read,Read1,SUMMER,SNOW,Study2,M,61,104,Test,User,-,,Recall,Recall2,5127,snow,100,4783,5046,1,1,,1
62877d5f6a054e53313ac916,zrt78p1yy2,"Mediated Recall_Prolific",1,175,2023-03-04T18:23:35+00:00,2.8142058849335,1,versionA_stim.csv,ReadVersion.csv,Read,Read1,WINDOW,KNOB,Study2,M,74,95,Test,User,-,,Recall,Recall2,2431,clear,0,1482,2339,0,0,,1
62877d5f6a054e53313ac916,zrt78p1yy2,"Mediated Recall_Prolific",1,176,2023-03-04T18:23:38+00:00,3.0254600048065,1,versionA_stim.csv,ReadVersion.csv,Read,Read1,HORNET,STING,Study2,F,85,66,Test,User,-,,Recall,Recall2,2722,wasp,22.222222222222,1537,2357,0,0,,1
62877d5f6a054e53313ac916,zrt78p1yy2,"Mediated Recall_Prolific",1,177,2023-03-04T18:23:40+00:00,2.1411180496216,1,versionA_stim.csv,ReadVersion.csv,Read,Read1,BOTH,OUNCE,Study2,U,102,85,Test,User,-,,Recall,Recall2,1861,even,22.222222222222,1466,1749,0,0,,1
62877d5f6a054e53313ac916,zrt78p1yy2,"Mediated Recall_Prolific",1,178,2023-03-04T18:23:44+00:00,4.1603670120239,1,versionA_stim.csv,ReadVersion.csv,Read,Read1,VALLEY,PEAK,Study2,M,73,69,Test,User,-,,Recall,Recall2,3734,smell,22.222222222222,3079,3721,0,0,,1
62877d5f6a054e53313ac916,zrt78p1yy2,"Mediated Recall_Prolific",1,179,2023-03-04T18:23:47+00:00,2.5806488990784,1,versionA_stim.csv,ReadVersion.csv,Read,Read1,INCENSE,SMELL,Study2,F,83,63,Test,User,-,,Recall,Recall2,2266,fire,22.222222222222,1429,1740,0,0,,1
62877d5f6a054e53313ac916,zrt78p1yy2,"Mediated Recall_Prolific",1,180,2023-03-04T18:23:50+00:00,2.6894931793213,1,versionA_stim.csv,ReadVersion.csv,Read,Read1,LEAGUE,BASEBALL,Study2,F,84,102,Test,User,-,,Recall,Recall2,2406,baseball,100,1424,2373,1,1,,1
62877d5f6a054e53313ac916,zrt78p1yy2,"Mediated Recall_Prolific",1,181,2023-03-04T18:23:53+00:00,3.0763359069824,1,versionA_stim.csv,ReadVersion.csv,Read,Read1,RAKE,SEED,Study2,M,69,78,Test,User,-,,Recall,Recall2,2787,steep,66.666666666667,2082,2600,0,0,,1
62877d5f6a054e53313ac916,zrt78p1yy2,"Mediated Recall_Prolific",1,182,2023-03-04T18:24:02+00:00,8.8084940910339,1,versionA_stim.csv,ReadVersion.csv,Read,Read1,OVEN,BASKET,Study2,M,71,92,Test,User,-,,Recall,Recall2,8551,door,0,8165,8453,0,0,,1
62877d5f6a054e53313ac916,zrt78p1yy2,"Mediated Recall_Prolific",1,183,2023-03-04T18:24:06+00:00,4.3895149230957,1,versionA_stim.csv,ReadVersion.csv,Read,Read1,HAPPY,CAR,Study2,U,92,80,Test,User,-,,Recall,Recall2,3912,car,100,3616,3827,1,1,,1
62877d5f6a054e53313ac916,zrt78p1yy2,"Mediated Recall_Prolific",1,184,2023-03-04T18:24:12+00:00,5.9280970096588,1,versionA_stim.csv,ReadVersion.csv,Read,Read1,EYES,SMELL,Study2,M,65,100,Test,User,-,,Recall,Recall2,5632,snake,40,5101,5567,0,0,,1
62877d5f6a054e53313ac916,zrt78p1yy2,"Mediated Recall_Prolific",1,185,2023-03-04T18:24:15+00:00,2.920970916748,1,versionA_stim.csv,ReadVersion.csv,Read,Read1,HERD,COW,Study2,F,88,88,Test,User,-,,Recall,Recall2,2516,cow,100,1760,2033,1,1,,1
62877d5f6a054e53313ac916,zrt78p1yy2,"Mediated Recall_Prolific",1,186,2023-03-04T18:24:27+00:00,12.205024003983,1,versionA_stim.csv,ReadVersion.csv,Read,Read1,PUSH,CLUTTER,Study2,U,96,62,Test,User,-,,Recall,Recall2,11898,door,18.181818181818,9490,11821,0,0,,1
62877d5f6a054e53313ac916,zrt78p1yy2,"Mediated Recall_Prolific",1,187,2023-03-04T18:24:34+00:00,6.5838470458984,1,versionA_stim.csv,ReadVersion.csv,Read,Read1,MIRROR,CHILDREN,Study2,U,104,73,Test,User,-,,Recall,Recall2,6300,riddle,28.571428571429,5608,6243,0,0,,1
62877d5f6a054e53313ac916,zrt78p1yy2,"Mediated Recall_Prolific",1,188,2023-03-04T18:24:37+00:00,3.6653270721436,1,versionA_stim.csv,ReadVersion.csv,Read,Read1,ARTERY,BRONZE,Study2,U,103,99,Test,User,-,,Recall,Recall2,3214,heart,18.181818181818,2238,2793,0,0,,1
62877d5f6a054e53313ac916,zrt78p1yy2,"Mediated Recall_Prolific",1,189,2023-03-04T18:24:46+00:00,8.6335718631744,1,versionA_stim.csv,ReadVersion.csv,Read,Read1,CHOP,CUT,Study2,F,77,90,Test,User,-,,Recall,Recall2,8331,knife,0,6260,8214,0,0,,1
62877d5f6a054e53313ac916,zrt78p1yy2,"Mediated Recall_Prolific",1,190,2023-03-04T18:24:59+00:00,13.43496799469,1,versionA_stim.csv,ReadVersion.csv,Read,Read1,SOAP,DRINK,Study2,M,67,74,Test,User,-,,Recall,Recall2,13126,clean,20,12685,12999,0,0,,1
62877d5f6a054e53313ac916,zrt78p1yy2,"Mediated Recall_Prolific",1,191,2023-03-04T18:25:05+00:00,5.18452501297,1,versionA_stim.csv,ReadVersion.csv,Read,Read1,DEATH,BUSINESS,Study2,U,99,106,Test,User,-,,Recall,Recall2,4885,business,100,3997,4706,1,1,,1
62877d5f6a054e53313ac916,zrt78p1yy2,"Mediated Recall_Prolific",1,192,2023-03-04T18:25:08+00:00,3.6117660999298,1,versionA_stim.csv,ReadVersion.csv,Read,Read1,PANTS,COLLAR,Study2,M,63,72,Test,User,-,,Recall,Recall2,3218,collar,100,2593,3165,1,1,,1
62877d5f6a054e53313ac916,zrt78p1yy2,"Mediated Recall_Prolific",1,193,2023-03-04T18:25:11+00:00,2.8167998790741,1,versionA_stim.csv,ReadVersion.csv,Read,Read1,CACTUS,PLANT,Study2,F,76,77,Test,User,-,,Recall,Recall2,2364,thorn,20,1991,2261,0,0,,1
62877d5f6a054e53313ac916,zrt78p1yy2,"Mediated Recall_Prolific",1,194,2023-03-04T18:25:19+00:00,8.423798084259,1,versionA_stim.csv,ReadVersion.csv,Read,Read1,SCHOOL,STOP,Study2,M,62,86,Test,User,-,,Recall,Recall2,8178,paper,22.222222222222,7753,8125,0,0,,1
62877d5f6a054e53313ac916,zrt78p1yy2,"Mediated Recall_Prolific",1,195,2023-03-04T18:25:23+00:00,3.7562980651855,1,versionA_stim.csv,ReadVersion.csv,Read,Read1,DOCUMENT,PAPER,Study2,F,82,79,Test,User,-,,Recall,Recall2,3338,paper,100,1452,3220,1,1,,1
62877d5f6a054e53313ac916,zrt78p1yy2,"Mediated Recall_Prolific",1,196,2023-03-04T18:25:30+00:00,7.0210158824921,1,versionA_stim.csv,ReadVersion.csv,Read,Read1,BRIDGE,WATER,Study2,F,90,101,Test,User,-,,Recall,Recall2,6625,valley,36.363636363636,5939,6518,0,0,,1
62877d5f6a054e53313ac916,zrt78p1yy2,"Mediated Recall_Prolific",1,197,2023-03-04T18:25:32+00:00,1.8981871604919,1,versionA_stim.csv,ReadVersion.csv,Read,Read1,CHISEL,HAMMER,Study2,F,78,82,Test,User,-,,Recall,Recall2,1616,hammer,100,1154,1562,1,1,,1
62877d5f6a054e53313ac916,zrt78p1yy2,"Mediated Recall_Prolific",1,198,2023-03-04T18:25:34+00:00,1.9788479804993,1,versionA_stim.csv,ReadVersion.csv,Read,Read1,LEASE,TOIL,Study2,U,101,70,Test,User,-,,Recall,Recall2,1526,toil,100,891,1234,1,1,,1
62877d5f6a054e53313ac916,zrt78p1yy2,"Mediated Recall_Prolific",1,199,2023-03-04T18:25:36+00:00,2.1549010276794,1,versionA_stim.csv,ReadVersion.csv,Read,Read1,CHERRY,RED,Study2,F,80,103,Test,User,-,,Recall,Recall2,1816,pick,0,1340,1711,0,0,,1
62877d5f6a054e53313ac916,zrt78p1yy2,"Mediated Recall_Prolific",1,200,2023-03-04T18:25:41+00:00,4.8984467983246,1,versionA_stim.csv,ReadVersion.csv,Read,Read1,FEUD,FIGHT,Study2,F,86,89,Test,User,-,,Recall,Recall2,4360,lawyer,0,1212,4184,0,0,,1
62877d5f6a054e53313ac916,zrt78p1yy2,"Mediated Recall_Prolific",1,201,2023-03-04T18:25:52+00:00,10.935361146927,1,versionA_stim.csv,ReadVersion.csv,Read,Read1,BENCH,HORN,Study2,U,98,94,Test,User,-,,Recall,Recall2,10375,league,0,9589,10280,0,0,,1
62877d5f6a054e53313ac916,zrt78p1yy2,"Mediated Recall_Prolific",1,202,2023-03-04T18:25:54+00:00,2.0693929195404,1,versionA_stim.csv,ReadVersion.csv,Read,Read1,WASP,BUG,Study2,F,89,97,Test,User,-,,Recall,Recall2,1583,hornet,0,1063,1481,0,0,,1
62877d5f6a054e53313ac916,zrt78p1yy2,"Mediated Recall_Prolific",1,203,2023-03-04T18:26:06+00:00,11.567066907883,1,versionA_stim.csv,ReadVersion.csv,Read,Read1,HEAVY,FEATHER,Study2,M,68,67,Test,User,-,,Recall,Recall2,11093,carry,33.333333333333,10345,11028,0,0,,1
62877d5f6a054e53313ac916,zrt78p1yy2,"Mediated Recall_Prolific",1,204,2023-03-04T18:26:10+00:00,4.0073730945587,1,versionA_stim.csv,ReadVersion.csv,Read,Read1,CASH,LEG,Study2,U,105,64,Test,User,-,,Recall,Recall2,3592,credit,22.222222222222,2889,3527,0,0,,1
62877d5f6a054e53313ac916,zrt78p1yy2,"Mediated Recall_Prolific",1,205,2023-03-04T18:26:16+00:00,6.1322340965271,1,versionA_stim.csv,ReadVersion.csv,Read,Read1,ART,WOLF,Study2,U,93,93,Test,User,-,,Recall,Recall2,5718,paint,0,5277,5642,0,0,,1
62877d5f6a054e53313ac916,zrt78p1yy2,"Mediated Recall_Prolific",1,206,2023-03-04T18:26:20+00:00,4.4540278911591,1,versionA_stim.csv,ReadVersion.csv,Read,Read1,ATTIRE,CLOTHES,Study2,F,79,76,Test,User,-,,Recall,Recall2,3969,clothes,100,3179,3811,1,1,,1
62877d5f6a054e53313ac916,zrt78p1yy2,"Mediated Recall_Prolific",1,207,2023-03-04T18:26:22+00:00,1.874843120575,1,versionA_stim.csv,ReadVersion.csv,Read,Read1,NURSE,LAWYER,Study2,M,66,96,Test,User,-,,Recall,Recall2,1558,lawyer,100,1070,1478,1,1,,1
62877d5f6a054e53313ac916,zrt78p1yy2,"Mediated Recall_Prolific",1,208,2023-03-04T18:26:25+00:00,2.6454470157623,1,versionA_stim.csv,ReadVersion.csv,Read,Read1,KING,VASE,Study2,U,91,84,Test,User,-,,Recall,Recall2,2174,queen,22.222222222222,1714,2086,0,0,,1
62877d5f6a054e53313ac916,zrt78p1yy2,"Mediated Recall_Prolific",1,209,2023-03-04T18:26:29+00:00,4.3935618400574,1,versionA_stim.csv,ReadVersion.csv,Read,Read1,REALITY,ISLAND,Study2,M,64,68,Test,User,-,,Recall,Recall2,4112,mirror,16.666666666667,3047,4044,0,0,,1
62877d5f6a054e53313ac916,zrt78p1yy2,"Mediated Recall_Prolific",1,210,2023-03-04T18:26:34+00:00,4.5763461589813,1,versionA_stim.csv,ReadVersion.csv,Read,Read1,GRILL,THIGH,Study2,M,72,81,Test,User,-,,Recall,Recall2,4123,chop,22.222222222222,3654,4006,0,0,,1
62877d5f6a054e53313ac916,zrt78p1yy2,"Mediated Recall_Prolific",1,211,2023-03-04T18:26:35+00:00,1.5203928947449,1,versionA_stim.csv,ReadVersion.csv,Read,Read1,,,,,,0,Instruct,User,-,"You have completed this section. Please press Enter.",,Instruct7,1045,,,-1,-1,,,,1
62877d5f6a054e53313ac916,zrt78p1yy2,"Mediated Recall_Prolific",1,212,2023-03-04T18:26:37+00:00,1.8539619445801,1,versionA_stim.csv,ReadVersion.csv,Read,Read1,,,,,,0,Instruct,User,-,"The following screen will ask you a few questions abour your experience today. You must complete these questions to receive credit.",,Instruct8,1555,,,-1,-1,,,,1
