Username,ID,ExperimentName,Session,Trial,Date,TimeDif,"Condition Number","Stimuli File","Order File","Condition Description","Condition Notes",Stimuli*Cue,Stimuli*Answer,Stimuli*Shuffle,"Stimuli*Stimuli Notes",Stimuli*Value,Procedure*Item,"Procedure*Trial Type","Procedure*Max Time","Procedure*Min Time",Procedure*Text,"Procedure*Procedure Notes",Procedure*Shuffle,Response*RT,Response*Response,Response*Accuracy,Response*RTfirst,Response*RTlast,Response*strictAcc,Response*lenientAcc,Response*focus,Response*Focus
55b2d3f2fdf99b525bc839aa,e8qwvteax9,"Mediated Recall_Prolific",1,1,2023-02-23T22:15:15+00:00,10.441454172134,1,versionA_stim.csv,ReadVersion.csv,Read,Read1,,,,,,0,Instruct,-,5,"In this section, you will be presented with a series of word pairs. Please study each word pair! Your memory will be tested!",Initial_Instruct,Instruct1,10169,,,-1,-1,,,,0.412
55b2d3f2fdf99b525bc839aa,e8qwvteax9,"Mediated Recall_Prolific",1,2,2023-02-23T22:15:56+00:00,41.183315992355,1,versionA_stim.csv,ReadVersion.csv,Read,Read1,,,,,,0,Instruct,User,-,"You will now begin. Press Enter when you are ready to begin.",,Instruct16,40889,,,-1,-1,,,,0.188
55b2d3f2fdf99b525bc839aa,e8qwvteax9,"Mediated Recall_Prolific",1,3,2023-02-23T22:16:30+00:00,33.905691862106,1,versionA_stim.csv,ReadVersion.csv,Read,Read1,PEANUT,BUTTER,BUFFER1,Buffer,3,5,Study,User,-,,Study/JOL,BUFFER,33590,,,-1,-1,,,,0.839
55b2d3f2fdf99b525bc839aa,e8qwvteax9,"Mediated Recall_Prolific",1,4,2023-02-23T22:16:32+00:00,1.898010969162,1,versionA_stim.csv,ReadVersion.csv,Read,Read1,SCARE,FRIGHT,BUFFER1,Buffer,4,4,Study,User,-,,Study/JOL,BUFFER,1724,,,-1,-1,,,,1
55b2d3f2fdf99b525bc839aa,e8qwvteax9,"Mediated Recall_Prolific",1,5,2023-02-23T22:16:34+00:00,2.2918751239777,1,versionA_stim.csv,ReadVersion.csv,Read,Read1,SPACE,JAM,BUFFER1,Buffer,5,6,Study,User,-,,Study/JOL,BUFFER,2123,,,-1,-1,,,,1
55b2d3f2fdf99b525bc839aa,e8qwvteax9,"Mediated Recall_Prolific",1,6,2023-02-23T22:16:36+00:00,1.9095249176025,1,versionA_stim.csv,ReadVersion.csv,Read,Read1,TREES,GREEN,BUFFER1,Buffer,1,3,Study,User,-,,Study/JOL,BUFFER,1739,,,-1,-1,,,,1
55b2d3f2fdf99b525bc839aa,e8qwvteax9,"Mediated Recall_Prolific",1,7,2023-02-23T22:16:38+00:00,1.6684429645538,1,versionA_stim.csv,ReadVersion.csv,Read,Read1,PITCHER,CATCHER,BUFFER1,Buffer,2,2,Study,User,-,,Study/JOL,BUFFER,1496,,,-1,-1,,,,1
55b2d3f2fdf99b525bc839aa,e8qwvteax9,"Mediated Recall_Prolific",1,8,2023-02-23T22:16:39+00:00,1.2921769618988,1,versionA_stim.csv,ReadVersion.csv,Read,Read1,KEYS,ROD,Study1,U,45,51,Study,User,-,,Study/JOL,"Study Phase",1131,,,-1,-1,,,,1
55b2d3f2fdf99b525bc839aa,e8qwvteax9,"Mediated Recall_Prolific",1,9,2023-02-23T22:16:41+00:00,1.4707322120667,1,versionA_stim.csv,ReadVersion.csv,Read,Read1,MIRROR,MAROON,Study1,U,36,26,Study,User,-,,Study/JOL,"Study Phase",1306,,,-1,-1,,,,1
55b2d3f2fdf99b525bc839aa,e8qwvteax9,"Mediated Recall_Prolific",1,10,2023-02-23T22:16:42+00:00,1.3889439105988,1,versionA_stim.csv,ReadVersion.csv,Read,Read1,SWAN,BIRD,Study1,F,26,7,Study,User,-,,Study/JOL,"Study Phase",1219,,,-1,-1,,,,1
55b2d3f2fdf99b525bc839aa,e8qwvteax9,"Mediated Recall_Prolific",1,11,2023-02-23T22:16:43+00:00,1.1879050731659,1,versionA_stim.csv,ReadVersion.csv,Read,Read1,HORSE,WHEEL,Study1,M,14,12,Study,User,-,,Study/JOL,"Study Phase",1022,,,-1,-1,,,,1
55b2d3f2fdf99b525bc839aa,e8qwvteax9,"Mediated Recall_Prolific",1,12,2023-02-23T22:16:45+00:00,1.317195892334,1,versionA_stim.csv,ReadVersion.csv,Read,Read1,STRETCH,CLOTH,Study1,U,37,43,Study,User,-,,Study/JOL,"Study Phase",1152,,,-1,-1,,,,1
55b2d3f2fdf99b525bc839aa,e8qwvteax9,"Mediated Recall_Prolific",1,13,2023-02-23T22:16:46+00:00,1.2471170425415,1,versionA_stim.csv,ReadVersion.csv,Read,Read1,ROUGH,SILK,Study1,M,10,15,Study,User,-,,Study/JOL,"Study Phase",1081,,,-1,-1,,,,1
55b2d3f2fdf99b525bc839aa,e8qwvteax9,"Mediated Recall_Prolific",1,14,2023-02-23T22:16:47+00:00,1.3848659992218,1,versionA_stim.csv,ReadVersion.csv,Read,Read1,VEHICLE,CHARM,Study1,U,40,40,Study,User,-,,Study/JOL,"Study Phase",1223,,,-1,-1,,,,1
55b2d3f2fdf99b525bc839aa,e8qwvteax9,"Mediated Recall_Prolific",1,15,2023-02-23T22:16:48+00:00,1.1511690616608,1,versionA_stim.csv,ReadVersion.csv,Read,Read1,AFFECTION,LOVE,Study1,F,31,21,Study,User,-,,Study/JOL,"Study Phase",989,,,-1,-1,,,,1
55b2d3f2fdf99b525bc839aa,e8qwvteax9,"Mediated Recall_Prolific",1,16,2023-02-23T22:16:50+00:00,1.4003839492798,1,versionA_stim.csv,ReadVersion.csv,Read,Read1,NAP,SLEEP,Study1,F,29,20,Study,User,-,,Study/JOL,"Study Phase",1237,,,-1,-1,,,,1
55b2d3f2fdf99b525bc839aa,e8qwvteax9,"Mediated Recall_Prolific",1,17,2023-02-23T22:16:51+00:00,1.5880589485168,1,versionA_stim.csv,ReadVersion.csv,Read,Read1,SOON,BELT,Study1,U,46,13,Study,User,-,,Study/JOL,"Study Phase",1421,,,-1,-1,,,,1
55b2d3f2fdf99b525bc839aa,e8qwvteax9,"Mediated Recall_Prolific",1,18,2023-02-23T22:16:53+00:00,1.4365830421448,1,versionA_stim.csv,ReadVersion.csv,Read,Read1,TUNA,FISH,Study1,F,35,31,Study,User,-,,Study/JOL,"Study Phase",1267,,,-1,-1,,,,1
55b2d3f2fdf99b525bc839aa,e8qwvteax9,"Mediated Recall_Prolific",1,19,2023-02-23T22:16:54+00:00,1.423553943634,1,versionA_stim.csv,ReadVersion.csv,Read,Read1,MAZE,PHONE,Study1,U,42,44,Study,User,-,,Study/JOL,"Study Phase",1263,,,-1,-1,,,,1
55b2d3f2fdf99b525bc839aa,e8qwvteax9,"Mediated Recall_Prolific",1,20,2023-02-23T22:16:56+00:00,1.4580149650574,1,versionA_stim.csv,ReadVersion.csv,Read,Read1,DAY,DARK,Study1,M,18,42,Study,User,-,,Study/JOL,"Study Phase",1296,,,-1,-1,,,,1
55b2d3f2fdf99b525bc839aa,e8qwvteax9,"Mediated Recall_Prolific",1,21,2023-02-23T22:16:57+00:00,1.1645681858063,1,versionA_stim.csv,ReadVersion.csv,Read,Read1,MULE,DONKEY,Study1,F,24,24,Study,User,-,,Study/JOL,"Study Phase",1001,,,-1,-1,,,,1
55b2d3f2fdf99b525bc839aa,e8qwvteax9,"Mediated Recall_Prolific",1,22,2023-02-23T22:16:58+00:00,1.0746288299561,1,versionA_stim.csv,ReadVersion.csv,Read,Read1,TEMPERATURE,MORNING,Study1,U,48,48,Study,User,-,,Study/JOL,"Study Phase",896,,,-1,-1,,,,1
55b2d3f2fdf99b525bc839aa,e8qwvteax9,"Mediated Recall_Prolific",1,23,2023-02-23T22:16:59+00:00,0.96935606002808,1,versionA_stim.csv,ReadVersion.csv,Read,Read1,LION,STRIPES,Study1,M,6,30,Study,User,-,,Study/JOL,"Study Phase",807,,,-1,-1,,,,1
55b2d3f2fdf99b525bc839aa,e8qwvteax9,"Mediated Recall_Prolific",1,24,2023-02-23T22:17:00+00:00,0.98217105865479,1,versionA_stim.csv,ReadVersion.csv,Read,Read1,CAKE,HAND,Study1,U,49,32,Study,User,-,,Study/JOL,"Study Phase",818,,,-1,-1,,,,1
55b2d3f2fdf99b525bc839aa,e8qwvteax9,"Mediated Recall_Prolific",1,25,2023-02-23T22:17:01+00:00,1.1012089252472,1,versionA_stim.csv,ReadVersion.csv,Read,Read1,BAT,BOUNCE,Study1,M,12,45,Study,User,-,,Study/JOL,"Study Phase",936,,,-1,-1,,,,1
55b2d3f2fdf99b525bc839aa,e8qwvteax9,"Mediated Recall_Prolific",1,26,2023-02-23T22:17:02+00:00,1.0010530948639,1,versionA_stim.csv,ReadVersion.csv,Read,Read1,SHELL,SHAKE,Study1,U,43,46,Study,User,-,,Study/JOL,"Study Phase",837,,,-1,-1,,,,1
55b2d3f2fdf99b525bc839aa,e8qwvteax9,"Mediated Recall_Prolific",1,27,2023-02-23T22:17:03+00:00,1.0587329864502,1,versionA_stim.csv,ReadVersion.csv,Read,Read1,LISTEN,FICTION,Study1,U,44,36,Study,User,-,,Study/JOL,"Study Phase",894,,,-1,-1,,,,1
55b2d3f2fdf99b525bc839aa,e8qwvteax9,"Mediated Recall_Prolific",1,28,2023-02-23T22:17:04+00:00,1.0344939231873,1,versionA_stim.csv,ReadVersion.csv,Read,Read1,SIGN,TICK,Study1,U,47,16,Study,User,-,,Study/JOL,"Study Phase",864,,,-1,-1,,,,1
55b2d3f2fdf99b525bc839aa,e8qwvteax9,"Mediated Recall_Prolific",1,29,2023-02-23T22:17:05+00:00,1.0136699676514,1,versionA_stim.csv,ReadVersion.csv,Read,Read1,HYGIENE,CLEAN,Study1,F,28,28,Study,User,-,,Study/JOL,"Study Phase",838,,,-1,-1,,,,1
55b2d3f2fdf99b525bc839aa,e8qwvteax9,"Mediated Recall_Prolific",1,30,2023-02-23T22:17:06+00:00,1.0146219730377,1,versionA_stim.csv,ReadVersion.csv,Read,Read1,ORCHID,FLOWER,Study1,F,34,17,Study,User,-,,Study/JOL,"Study Phase",850,,,-1,-1,,,,1
55b2d3f2fdf99b525bc839aa,e8qwvteax9,"Mediated Recall_Prolific",1,31,2023-02-23T22:17:07+00:00,0.83970713615417,1,versionA_stim.csv,ReadVersion.csv,Read,Read1,TOOTH,HAIR,Study1,M,19,10,Study,User,-,,Study/JOL,"Study Phase",679,,,-1,-1,,,,1
55b2d3f2fdf99b525bc839aa,e8qwvteax9,"Mediated Recall_Prolific",1,32,2023-02-23T22:17:08+00:00,1.0994780063629,1,versionA_stim.csv,ReadVersion.csv,Read,Read1,BIRTHDAY,PIE,Study1,M,9,47,Study,User,-,,Study/JOL,"Study Phase",935,,,-1,-1,,,,1
55b2d3f2fdf99b525bc839aa,e8qwvteax9,"Mediated Recall_Prolific",1,33,2023-02-23T22:17:09+00:00,1.2345139980316,1,versionA_stim.csv,ReadVersion.csv,Read,Read1,WORD,SENTENCE,Study1,F,27,33,Study,User,-,,Study/JOL,"Study Phase",1065,,,-1,-1,,,,1
55b2d3f2fdf99b525bc839aa,e8qwvteax9,"Mediated Recall_Prolific",1,34,2023-02-23T22:17:11+00:00,1.2778940200806,1,versionA_stim.csv,ReadVersion.csv,Read,Read1,MULE,DONKEY,Study1,F,30,25,Study,User,-,,Study/JOL,"Study Phase",1119,,,-1,-1,,,,1
55b2d3f2fdf99b525bc839aa,e8qwvteax9,"Mediated Recall_Prolific",1,35,2023-02-23T22:17:12+00:00,1.1358549594879,1,versionA_stim.csv,ReadVersion.csv,Read,Read1,HARD,COTTON,Study1,M,20,37,Study,User,-,,Study/JOL,"Study Phase",965,,,-1,-1,,,,1
55b2d3f2fdf99b525bc839aa,e8qwvteax9,"Mediated Recall_Prolific",1,36,2023-02-23T22:17:14+00:00,1.7562718391418,1,versionA_stim.csv,ReadVersion.csv,Read,Read1,SIP,DRINK,Study1,F,32,35,Study,User,-,,Study/JOL,"Study Phase",1591,,,-1,-1,,,,1
55b2d3f2fdf99b525bc839aa,e8qwvteax9,"Mediated Recall_Prolific",1,37,2023-02-23T22:17:15+00:00,1.5352032184601,1,versionA_stim.csv,ReadVersion.csv,Read,Read1,WAGE,MONEY,Study1,F,22,8,Study,User,-,,Study/JOL,"Study Phase",1372,,,-1,-1,,,,1
55b2d3f2fdf99b525bc839aa,e8qwvteax9,"Mediated Recall_Prolific",1,38,2023-02-23T22:17:17+00:00,1.6199088096619,1,versionA_stim.csv,ReadVersion.csv,Read,Read1,CRY,BOTTLE,Study1,M,16,23,Study,User,-,,Study/JOL,"Study Phase",1459,,,-1,-1,,,,1
55b2d3f2fdf99b525bc839aa,e8qwvteax9,"Mediated Recall_Prolific",1,39,2023-02-23T22:17:18+00:00,1.4412779808044,1,versionA_stim.csv,ReadVersion.csv,Read,Read1,GIVE,STEAK,Study1,U,38,29,Study,User,-,,Study/JOL,"Study Phase",1276,,,-1,-1,,,,1
55b2d3f2fdf99b525bc839aa,e8qwvteax9,"Mediated Recall_Prolific",1,40,2023-02-23T22:17:19+00:00,1.1577792167664,1,versionA_stim.csv,ReadVersion.csv,Read,Read1,SCALP,HEAD,Study1,F,23,34,Study,User,-,,Study/JOL,"Study Phase",993,,,-1,-1,,,,1
55b2d3f2fdf99b525bc839aa,e8qwvteax9,"Mediated Recall_Prolific",1,41,2023-02-23T22:17:22+00:00,2.3516399860382,1,versionA_stim.csv,ReadVersion.csv,Read,Read1,CIRCLE,DANCE,Study1,M,13,22,Study,User,-,,Study/JOL,"Study Phase",2186,,,-1,-1,,,,1
55b2d3f2fdf99b525bc839aa,e8qwvteax9,"Mediated Recall_Prolific",1,42,2023-02-23T22:17:23+00:00,1.4703857898712,1,versionA_stim.csv,ReadVersion.csv,Read,Read1,TREE,SYRUP,Study1,M,11,18,Study,User,-,,Study/JOL,"Study Phase",1303,,,-1,-1,,,,1
55b2d3f2fdf99b525bc839aa,e8qwvteax9,"Mediated Recall_Prolific",1,43,2023-02-23T22:17:24+00:00,1.0958790779114,1,versionA_stim.csv,ReadVersion.csv,Read,Read1,FUZZY,BANG,Study1,U,50,27,Study,User,-,,Study/JOL,"Study Phase",930,,,-1,-1,,,,1
55b2d3f2fdf99b525bc839aa,e8qwvteax9,"Mediated Recall_Prolific",1,44,2023-02-23T22:17:26+00:00,2.0633969306946,1,versionA_stim.csv,ReadVersion.csv,Read,Read1,BEACH,BOX,Study1,M,7,50,Study,User,-,,Study/JOL,"Study Phase",1891,,,-1,-1,,,,1
55b2d3f2fdf99b525bc839aa,e8qwvteax9,"Mediated Recall_Prolific",1,45,2023-02-23T22:17:28+00:00,1.5980441570282,1,versionA_stim.csv,ReadVersion.csv,Read,Read1,WAR,QUIET,Study1,M,8,14,Study,User,-,,Study/JOL,"Study Phase",1434,,,-1,-1,,,,1
55b2d3f2fdf99b525bc839aa,e8qwvteax9,"Mediated Recall_Prolific",1,46,2023-02-23T22:17:29+00:00,1.3827078342438,1,versionA_stim.csv,ReadVersion.csv,Read,Read1,CRACKLE,ELECTION,Study1,U,39,9,Study,User,-,,Study/JOL,"Study Phase",1213,,,-1,-1,,,,1
55b2d3f2fdf99b525bc839aa,e8qwvteax9,"Mediated Recall_Prolific",1,47,2023-02-23T22:17:38+00:00,9.0421299934387,1,versionA_stim.csv,ReadVersion.csv,Read,Read1,MEAT,KEYS,Study1,U,41,19,Study,User,-,,Study/JOL,"Study Phase",8745,,,-1,-1,,,,1
55b2d3f2fdf99b525bc839aa,e8qwvteax9,"Mediated Recall_Prolific",1,48,2023-02-23T22:17:39+00:00,1.0735640525818,1,versionA_stim.csv,ReadVersion.csv,Read,Read1,CEILING,CARPET,Study1,M,15,41,Study,User,-,,Study/JOL,"Study Phase",906,,,-1,-1,,,,1
55b2d3f2fdf99b525bc839aa,e8qwvteax9,"Mediated Recall_Prolific",1,49,2023-02-23T22:17:41+00:00,1.2817039489746,1,versionA_stim.csv,ReadVersion.csv,Read,Read1,CREDIT,CARD,Study1,F,33,39,Study,User,-,,Study/JOL,"Study Phase",1112,,,-1,-1,,,,1
55b2d3f2fdf99b525bc839aa,e8qwvteax9,"Mediated Recall_Prolific",1,50,2023-02-23T22:17:45+00:00,4.0054612159729,1,versionA_stim.csv,ReadVersion.csv,Read,Read1,LITTER,TRASH,Study1,F,21,38,Study,User,-,,Study/JOL,"Study Phase",3842,,,-1,-1,,,,1
55b2d3f2fdf99b525bc839aa,e8qwvteax9,"Mediated Recall_Prolific",1,51,2023-02-23T22:17:46+00:00,1.6644189357758,1,versionA_stim.csv,ReadVersion.csv,Read,Read1,WEDDING,FINGER,Study1,M,17,49,Study,User,-,,Study/JOL,"Study Phase",1500,,,-1,-1,,,,1
55b2d3f2fdf99b525bc839aa,e8qwvteax9,"Mediated Recall_Prolific",1,52,2023-02-23T22:17:48+00:00,1.5121350288391,1,versionA_stim.csv,ReadVersion.csv,Read,Read1,ROOT,PLANT,Study1,F,25,11,Study,User,-,,Study/JOL,"Study Phase",1346,,,-1,-1,,,,1
55b2d3f2fdf99b525bc839aa,e8qwvteax9,"Mediated Recall_Prolific",1,53,2023-02-23T22:17:49+00:00,1.2095649242401,1,versionA_stim.csv,ReadVersion.csv,Read,Read1,TOOL,SHED,BUFFER3,Buffer,58,58,Study,User,-,,Study/JOL,BUFFER2,1048,,,-1,-1,,,,1
55b2d3f2fdf99b525bc839aa,e8qwvteax9,"Mediated Recall_Prolific",1,54,2023-02-23T22:17:55+00:00,6.3261439800262,1,versionA_stim.csv,ReadVersion.csv,Read,Read1,CAMP,ADVENTURE,BUFFER4,Buffer,110,110,Study,User,-,,Study/JOL,BUFFER2,6038,,,-1,-1,,,,1
55b2d3f2fdf99b525bc839aa,e8qwvteax9,"Mediated Recall_Prolific",1,55,2023-02-23T22:18:03+00:00,7.5105581283569,1,versionA_stim.csv,ReadVersion.csv,Read,Read1,THING,STUFF,BUFFER2,Buffer,55,52,Study,User,-,,Study/JOL,BUFFER2,7216,,,-1,-1,,,,1
55b2d3f2fdf99b525bc839aa,e8qwvteax9,"Mediated Recall_Prolific",1,56,2023-02-23T22:18:04+00:00,1.2443277835846,1,versionA_stim.csv,ReadVersion.csv,Read,Read1,DAYS,WEAKS,BUFFER3,Buffer,56,60,Study,User,-,,Study/JOL,BUFFER2,1060,,,-1,-1,,,,1
55b2d3f2fdf99b525bc839aa,e8qwvteax9,"Mediated Recall_Prolific",1,57,2023-02-23T22:18:07+00:00,3.1139562129974,1,versionA_stim.csv,ReadVersion.csv,Read,Read1,ICE,FROZEN,BUFFER4,Buffer,109,111,Study,User,-,,Study/JOL,BUFFER2,2945,,,-1,-1,,,,1
55b2d3f2fdf99b525bc839aa,e8qwvteax9,"Mediated Recall_Prolific",1,58,2023-02-23T22:18:09+00:00,1.4878149032593,1,versionA_stim.csv,ReadVersion.csv,Read,Read1,,,,,,0,Instruct,User,-,"You have completed this section. Please press Enter.",Filler_Instruction,Instruct2,1323,,,-1,-1,,,,1
55b2d3f2fdf99b525bc839aa,e8qwvteax9,"Mediated Recall_Prolific",1,59,2023-02-23T22:20:09+00:00,120.28952288628,1,versionA_stim.csv,ReadVersion.csv,Read,Read1,,,,,,0,FreeRecall,120,120,"Please list the 50 US states in alphabetical order. The task will automatically advance to the next screen after two minutes.",,Filler1,120000,"Alabama, Alaska, Arizona, Arkansas, California, Colorado, Connecticut, Delaware, Florida, Georgia, Hawaii, Idaho, Illinois, Indiana, Iowa, Kansas, Kentucky, Louisiana, Maine, Maryland, Massachusetts, Michigan, Minnesota, Mississippi, Missouri, Montana, Nebraska, Nevada, New Hampshire, New Jersey, New Mexico, New York, North Carolina, North Dakota, Ohio, Oklahoma, Oregon, Pennsylvania, Rhode Island, South Carolina, South Dakota, Te",0,16993,119897,0,0,,0.943
55b2d3f2fdf99b525bc839aa,e8qwvteax9,"Mediated Recall_Prolific",1,60,2023-02-23T22:20:24+00:00,15.010612010956,1,versionA_stim.csv,ReadVersion.csv,Read,Read1,,,,,,0,Instruct,-,10,"You will now be presented with the first word from each of the previously studied item pairs. Please type the missing word. If you do not know the word, you may guess or press Enter to skip forward to the next pair.",,Instruct3,14684,,,-1,-1,,,,1
55b2d3f2fdf99b525bc839aa,e8qwvteax9,"Mediated Recall_Prolific",1,61,2023-02-23T22:20:36+00:00,11.971784114838,1,versionA_stim.csv,ReadVersion.csv,Read,Read1,BAT,BOUNCE,Study1,M,12,45,Test,User,-,,Recall,Recall1,11665,bounce,100,9507,10470,1,1,,1
55b2d3f2fdf99b525bc839aa,e8qwvteax9,"Mediated Recall_Prolific",1,62,2023-02-23T22:20:47+00:00,10.901208877563,1,versionA_stim.csv,ReadVersion.csv,Read,Read1,KEYS,ROD,Study1,U,45,51,Test,User,-,,Recall,Recall1,10600,rod,100,8201,9560,1,1,,1
55b2d3f2fdf99b525bc839aa,e8qwvteax9,"Mediated Recall_Prolific",1,63,2023-02-23T22:21:00+00:00,13.09022808075,1,versionA_stim.csv,ReadVersion.csv,Read,Read1,SHELL,SHAKE,Study1,U,43,46,Test,User,-,,Recall,Recall1,12787,shake,100,9052,11186,1,1,,1
55b2d3f2fdf99b525bc839aa,e8qwvteax9,"Mediated Recall_Prolific",1,64,2023-02-23T22:21:10+00:00,10.380882024765,1,versionA_stim.csv,ReadVersion.csv,Read,Read1,GIVE,STEAK,Study1,U,38,29,Test,User,-,,Recall,Recall1,10084,steak,100,6600,8401,1,1,,1
55b2d3f2fdf99b525bc839aa,e8qwvteax9,"Mediated Recall_Prolific",1,65,2023-02-23T22:21:29+00:00,18.664875030518,1,versionA_stim.csv,ReadVersion.csv,Read,Read1,ORCHID,FLOWER,Study1,F,34,17,Test,User,-,,Recall,Recall1,18348,flower,100,15549,17701,1,1,,1
55b2d3f2fdf99b525bc839aa,e8qwvteax9,"Mediated Recall_Prolific",1,66,2023-02-23T22:21:45+00:00,16.003473043442,1,versionA_stim.csv,ReadVersion.csv,Read,Read1,FUZZY,BANG,Study1,U,50,27,Test,User,-,,Recall,Recall1,15692,bang,100,14040,15173,1,1,,1
55b2d3f2fdf99b525bc839aa,e8qwvteax9,"Mediated Recall_Prolific",1,67,2023-02-23T22:21:54+00:00,9.0094268321991,1,versionA_stim.csv,ReadVersion.csv,Read,Read1,HYGIENE,CLEAN,Study1,F,28,28,Test,User,-,,Recall,Recall1,8713,clean,100,5406,7300,1,1,,1
55b2d3f2fdf99b525bc839aa,e8qwvteax9,"Mediated Recall_Prolific",1,68,2023-02-23T22:22:11+00:00,17.204385995865,1,versionA_stim.csv,ReadVersion.csv,Read,Read1,STRETCH,CLOTH,Study1,U,37,43,Test,User,-,,Recall,Recall1,16892,cloth,100,14426,15739,1,1,,1
55b2d3f2fdf99b525bc839aa,e8qwvteax9,"Mediated Recall_Prolific",1,69,2023-02-23T22:22:28+00:00,16.855597019196,1,versionA_stim.csv,ReadVersion.csv,Read,Read1,SWAN,BIRD,Study1,F,26,7,Test,User,-,,Recall,Recall1,16540,bird,100,14413,15316,1,1,,1
55b2d3f2fdf99b525bc839aa,e8qwvteax9,"Mediated Recall_Prolific",1,70,2023-02-23T22:22:51+00:00,22.991496086121,1,versionA_stim.csv,ReadVersion.csv,Read,Read1,WEDDING,FINGER,Study1,M,17,49,Test,User,-,,Recall,Recall1,22699,wage,40,21178,22152,0,0,,1
55b2d3f2fdf99b525bc839aa,e8qwvteax9,"Mediated Recall_Prolific",1,71,2023-02-23T22:22:57+00:00,5.986426115036,1,versionA_stim.csv,ReadVersion.csv,Read,Read1,CIRCLE,DANCE,Study1,M,13,22,Test,User,-,,Recall,Recall1,5681,dance,100,3969,5194,1,1,,1
55b2d3f2fdf99b525bc839aa,e8qwvteax9,"Mediated Recall_Prolific",1,72,2023-02-23T22:23:04+00:00,6.7210698127747,1,versionA_stim.csv,ReadVersion.csv,Read,Read1,SIGN,TICK,Study1,U,47,16,Test,User,-,,Recall,Recall1,6417,clean,22.222222222222,3841,5585,0,0,,1
55b2d3f2fdf99b525bc839aa,e8qwvteax9,"Mediated Recall_Prolific",1,73,2023-02-23T22:23:16+00:00,11.750926017761,1,versionA_stim.csv,ReadVersion.csv,Read,Read1,DAY,DARK,Study1,M,18,42,Test,User,-,,Recall,Recall1,11449,dark,100,9626,11167,1,1,,1
55b2d3f2fdf99b525bc839aa,e8qwvteax9,"Mediated Recall_Prolific",1,74,2023-02-23T22:23:27+00:00,10.963793992996,1,versionA_stim.csv,ReadVersion.csv,Read,Read1,MAZE,PHONE,Study1,U,42,44,Test,User,-,,Recall,Recall1,10651,bird,0,9360,10122,0,0,,1
55b2d3f2fdf99b525bc839aa,e8qwvteax9,"Mediated Recall_Prolific",1,75,2023-02-23T22:23:39+00:00,12.861345052719,1,versionA_stim.csv,ReadVersion.csv,Read,Read1,LISTEN,FICTION,Study1,U,44,36,Test,User,-,,Recall,Recall1,12555,fiction,100,10328,12233,1,1,,1
55b2d3f2fdf99b525bc839aa,e8qwvteax9,"Mediated Recall_Prolific",1,76,2023-02-23T22:24:27+00:00,47.600943088531,1,versionA_stim.csv,ReadVersion.csv,Read,Read1,CEILING,CARPET,Study1,M,15,41,Test,User,-,,Recall,Recall1,47294,maze,40,45590,46551,0,0,,1
55b2d3f2fdf99b525bc839aa,e8qwvteax9,"Mediated Recall_Prolific",1,77,2023-02-23T22:24:34+00:00,7.350250005722,1,versionA_stim.csv,ReadVersion.csv,Read,Read1,NAP,SLEEP,Study1,F,29,20,Test,User,-,,Recall,Recall1,7040,sleep,100,4852,6519,1,1,,1
55b2d3f2fdf99b525bc839aa,e8qwvteax9,"Mediated Recall_Prolific",1,78,2023-02-23T22:24:49+00:00,15.104770898819,1,versionA_stim.csv,ReadVersion.csv,Read,Read1,MIRROR,MAROON,Study1,U,36,26,Test,User,-,,Recall,Recall1,14808,maroon,100,10911,14233,1,1,,1
55b2d3f2fdf99b525bc839aa,e8qwvteax9,"Mediated Recall_Prolific",1,79,2023-02-23T22:25:10+00:00,20.561357975006,1,versionA_stim.csv,ReadVersion.csv,Read,Read1,WAR,QUIET,Study1,M,8,14,Test,User,-,,Recall,Recall1,20130,kill,22.222222222222,19363,19870,0,0,,1
55b2d3f2fdf99b525bc839aa,e8qwvteax9,"Mediated Recall_Prolific",1,80,2023-02-23T22:25:14+00:00,3.9799611568451,1,versionA_stim.csv,ReadVersion.csv,Read,Read1,WORD,SENTENCE,Study1,F,27,33,Test,User,-,,Recall,Recall1,3778,letter,42.857142857143,2777,3508,0,0,,1
55b2d3f2fdf99b525bc839aa,e8qwvteax9,"Mediated Recall_Prolific",1,81,2023-02-23T22:25:18+00:00,4.2406458854675,1,versionA_stim.csv,ReadVersion.csv,Read,Read1,TREE,SYRUP,Study1,M,11,18,Test,User,-,,Recall,Recall1,4052,oak,0,1621,3755,0,0,,1
55b2d3f2fdf99b525bc839aa,e8qwvteax9,"Mediated Recall_Prolific",1,82,2023-02-23T22:25:23+00:00,4.367889881134,1,versionA_stim.csv,ReadVersion.csv,Read,Read1,ROUGH,SILK,Study1,M,10,15,Test,User,-,,Recall,Recall1,4194,smooth,20,1945,3859,0,0,,1
55b2d3f2fdf99b525bc839aa,e8qwvteax9,"Mediated Recall_Prolific",1,83,2023-02-23T22:25:24+00:00,1.7363901138306,1,versionA_stim.csv,ReadVersion.csv,Read,Read1,VEHICLE,CHARM,Study1,U,40,40,Test,User,-,,Recall,Recall1,1560,car,75,1137,1402,0,1,,1
55b2d3f2fdf99b525bc839aa,e8qwvteax9,"Mediated Recall_Prolific",1,84,2023-02-23T22:25:26+00:00,1.7485139369965,1,versionA_stim.csv,ReadVersion.csv,Read,Read1,HARD,COTTON,Study1,M,20,37,Test,User,-,,Recall,Recall1,1583,soft,40,1032,1464,0,0,,1
55b2d3f2fdf99b525bc839aa,e8qwvteax9,"Mediated Recall_Prolific",1,85,2023-02-23T22:25:28+00:00,1.832316160202,1,versionA_stim.csv,ReadVersion.csv,Read,Read1,MEAT,KEYS,Study1,U,41,19,Test,User,-,,Recall,Recall1,1659,eat,28.571428571429,1325,1542,0,0,,1
55b2d3f2fdf99b525bc839aa,e8qwvteax9,"Mediated Recall_Prolific",1,86,2023-02-23T22:25:30+00:00,1.797956943512,1,versionA_stim.csv,ReadVersion.csv,Read,Read1,SOON,BELT,Study1,U,46,13,Test,User,-,,Recall,Recall1,1608,later,44.444444444444,1113,1539,0,0,,1
55b2d3f2fdf99b525bc839aa,e8qwvteax9,"Mediated Recall_Prolific",1,87,2023-02-23T22:25:34+00:00,4.5012729167938,1,versionA_stim.csv,ReadVersion.csv,Read,Read1,BEACH,BOX,Study1,M,7,50,Test,User,-,,Recall,Recall1,4313,sand,0,2213,4133,0,0,,1
55b2d3f2fdf99b525bc839aa,e8qwvteax9,"Mediated Recall_Prolific",1,88,2023-02-23T22:25:36+00:00,2.2317991256714,1,versionA_stim.csv,ReadVersion.csv,Read,Read1,MULE,DONKEY,Study1,F,30,25,Test,User,-,,Recall,Recall1,2022,horse,36.363636363636,1316,1880,0,0,,1
55b2d3f2fdf99b525bc839aa,e8qwvteax9,"Mediated Recall_Prolific",1,89,2023-02-23T22:25:40+00:00,3.6935048103333,1,versionA_stim.csv,ReadVersion.csv,Read,Read1,MULE,DONKEY,Study1,F,24,24,Test,User,-,,Recall,Recall1,3459,horse,36.363636363636,2394,3041,0,0,,1
55b2d3f2fdf99b525bc839aa,e8qwvteax9,"Mediated Recall_Prolific",1,90,2023-02-23T22:25:43+00:00,2.6592490673065,1,versionA_stim.csv,ReadVersion.csv,Read,Read1,LITTER,TRASH,Study1,F,21,38,Test,User,-,,Recall,Recall1,2420,trash,100,1622,2097,1,1,,1
55b2d3f2fdf99b525bc839aa,e8qwvteax9,"Mediated Recall_Prolific",1,91,2023-02-23T22:25:45+00:00,1.9210770130157,1,versionA_stim.csv,ReadVersion.csv,Read,Read1,CRACKLE,ELECTION,Study1,U,39,9,Test,User,-,,Recall,Recall1,1687,pop,18.181818181818,1081,1456,0,0,,1
55b2d3f2fdf99b525bc839aa,e8qwvteax9,"Mediated Recall_Prolific",1,92,2023-02-23T22:25:47+00:00,2.2577140331268,1,versionA_stim.csv,ReadVersion.csv,Read,Read1,BIRTHDAY,PIE,Study1,M,9,47,Test,User,-,,Recall,Recall1,2020,day,0,1285,1618,0,0,,1
55b2d3f2fdf99b525bc839aa,e8qwvteax9,"Mediated Recall_Prolific",1,93,2023-02-23T22:25:49+00:00,1.774561882019,1,versionA_stim.csv,ReadVersion.csv,Read,Read1,AFFECTION,LOVE,Study1,F,31,21,Test,User,-,,Recall,Recall1,1537,love,100,1010,1428,1,1,,1
55b2d3f2fdf99b525bc839aa,e8qwvteax9,"Mediated Recall_Prolific",1,94,2023-02-23T22:25:51+00:00,2.4363360404968,1,versionA_stim.csv,ReadVersion.csv,Read,Read1,SCALP,HEAD,Study1,F,23,34,Test,User,-,,Recall,Recall1,2224,head,100,1496,2098,1,1,,1
55b2d3f2fdf99b525bc839aa,e8qwvteax9,"Mediated Recall_Prolific",1,95,2023-02-23T22:25:53+00:00,2.3028120994568,1,versionA_stim.csv,ReadVersion.csv,Read,Read1,LION,STRIPES,Study1,M,6,30,Test,User,-,,Recall,Recall1,2094,tiger,50,1172,1743,0,0,,1
55b2d3f2fdf99b525bc839aa,e8qwvteax9,"Mediated Recall_Prolific",1,96,2023-02-23T22:25:55+00:00,2.0086829662323,1,versionA_stim.csv,ReadVersion.csv,Read,Read1,TUNA,FISH,Study1,F,35,31,Test,User,-,,Recall,Recall1,1769,fish,100,1007,1437,1,1,,1
55b2d3f2fdf99b525bc839aa,e8qwvteax9,"Mediated Recall_Prolific",1,97,2023-02-23T22:25:57+00:00,1.8395071029663,1,versionA_stim.csv,ReadVersion.csv,Read,Read1,HORSE,WHEEL,Study1,M,14,12,Test,User,-,,Recall,Recall1,1641,meat,22.222222222222,1092,1504,0,0,,1
55b2d3f2fdf99b525bc839aa,e8qwvteax9,"Mediated Recall_Prolific",1,98,2023-02-23T22:25:59+00:00,2.0409958362579,1,versionA_stim.csv,ReadVersion.csv,Read,Read1,ROOT,PLANT,Study1,F,25,11,Test,User,-,,Recall,Recall1,1843,canal,40,1045,1575,0,0,,1
55b2d3f2fdf99b525bc839aa,e8qwvteax9,"Mediated Recall_Prolific",1,99,2023-02-23T22:26:01+00:00,2.0666301250458,1,versionA_stim.csv,ReadVersion.csv,Read,Read1,WAGE,MONEY,Study1,F,22,8,Test,User,-,,Recall,Recall1,1867,money,100,999,1529,1,1,,1
55b2d3f2fdf99b525bc839aa,e8qwvteax9,"Mediated Recall_Prolific",1,100,2023-02-23T22:26:04+00:00,2.7197108268738,1,versionA_stim.csv,ReadVersion.csv,Read,Read1,TOOTH,HAIR,Study1,M,19,10,Test,User,-,,Recall,Recall1,2543,extract,18.181818181818,1195,2380,0,0,,1
55b2d3f2fdf99b525bc839aa,e8qwvteax9,"Mediated Recall_Prolific",1,101,2023-02-23T22:26:06+00:00,1.5966241359711,1,versionA_stim.csv,ReadVersion.csv,Read,Read1,CREDIT,CARD,Study1,F,33,39,Test,User,-,,Recall,Recall1,1431,card,100,877,1326,1,1,,1
55b2d3f2fdf99b525bc839aa,e8qwvteax9,"Mediated Recall_Prolific",1,102,2023-02-23T22:26:08+00:00,1.899817943573,1,versionA_stim.csv,ReadVersion.csv,Read,Read1,CRY,BOTTLE,Study1,M,16,23,Test,User,-,,Recall,Recall1,1723,more,40,1219,1602,0,0,,1
55b2d3f2fdf99b525bc839aa,e8qwvteax9,"Mediated Recall_Prolific",1,103,2023-02-23T22:26:10+00:00,2.0598740577698,1,versionA_stim.csv,ReadVersion.csv,Read,Read1,TEMPERATURE,MORNING,Study1,U,48,48,Test,User,-,,Recall,Recall1,1896,rise,36.363636363636,1383,1796,0,0,,1
55b2d3f2fdf99b525bc839aa,e8qwvteax9,"Mediated Recall_Prolific",1,104,2023-02-23T22:26:13+00:00,2.8205518722534,1,versionA_stim.csv,ReadVersion.csv,Read,Read1,SIP,DRINK,Study1,F,32,35,Test,User,-,,Recall,Recall1,2653,cup,0,1447,2200,0,0,,1
55b2d3f2fdf99b525bc839aa,e8qwvteax9,"Mediated Recall_Prolific",1,105,2023-02-23T22:26:16+00:00,3.1522591114044,1,versionA_stim.csv,ReadVersion.csv,Read,Read1,CAKE,HAND,Study1,U,49,32,Test,User,-,,Recall,Recall1,2978,bread,44.444444444444,2394,2847,0,0,,1
55b2d3f2fdf99b525bc839aa,e8qwvteax9,"Mediated Recall_Prolific",1,106,2023-02-23T22:27:56+00:00,100.77930092812,1,versionA_stim.csv,ReadVersion.csv,Read,Read1,,,,,,0,Instruct,-,10,"You will now be presented with a new set of word pairs. Please study each pair. Remember that your memory will be tested! When finished, press Enter to move to the next pair.",Initial_Instruct,Instruct4,100489,,,-1,-1,,,,0.284
55b2d3f2fdf99b525bc839aa,e8qwvteax9,"Mediated Recall_Prolific",1,107,2023-02-23T22:27:58+00:00,1.4922780990601,1,versionA_stim.csv,ReadVersion.csv,Read,Read1,,,,,,0,Instruct,User,-,"Press Enter when you are readty to begin",,Instruct11,1303,,,-1,-1,,,,1
55b2d3f2fdf99b525bc839aa,e8qwvteax9,"Mediated Recall_Prolific",1,108,2023-02-23T22:28:00+00:00,2.3111310005188,1,versionA_stim.csv,ReadVersion.csv,Read,Read1,NOODLE,STRING,BUFFER4,Buffer,107,109,Study,User,-,,Study/JOL,BUFFER2,2145,,,-1,-1,,,,1
55b2d3f2fdf99b525bc839aa,e8qwvteax9,"Mediated Recall_Prolific",1,109,2023-02-23T22:28:01+00:00,0.63138604164124,1,versionA_stim.csv,ReadVersion.csv,Read,Read1,MALT,CHOCOLATE,BUFFER2,Buffer,53,54,Study,User,-,,Study/JOL,BUFFER2,465,,,-1,-1,,,,1
55b2d3f2fdf99b525bc839aa,e8qwvteax9,"Mediated Recall_Prolific",1,110,2023-02-23T22:28:02+00:00,0.62450003623962,1,versionA_stim.csv,ReadVersion.csv,Read,Read1,MOON,SPACE,BUFFER2,Buffer,54,55,Study,User,-,,Study/JOL,BUFFER2,463,,,-1,-1,,,,1
55b2d3f2fdf99b525bc839aa,e8qwvteax9,"Mediated Recall_Prolific",1,111,2023-02-23T22:28:02+00:00,0.65971088409424,1,versionA_stim.csv,ReadVersion.csv,Read,Read1,SHRIMP,FISH,BUFFER4,Buffer,108,107,Study,User,-,,Study/JOL,BUFFER2,494,,,-1,-1,,,,1
55b2d3f2fdf99b525bc839aa,e8qwvteax9,"Mediated Recall_Prolific",1,112,2023-02-23T22:28:03+00:00,0.57477402687073,1,versionA_stim.csv,ReadVersion.csv,Read,Read1,MONTH,YEAR,BUFFER3,Buffer,57,61,Study,User,-,,Study/JOL,BUFFER2,409,,,-1,-1,,,,1
55b2d3f2fdf99b525bc839aa,e8qwvteax9,"Mediated Recall_Prolific",1,113,2023-02-23T22:28:03+00:00,0.59018206596375,1,versionA_stim.csv,ReadVersion.csv,Read,Read1,OVEN,BASKET,Study2,M,71,89,Study,User,-,,Study/JOL,"Study Phase2",425,,,-1,-1,,,,1
55b2d3f2fdf99b525bc839aa,e8qwvteax9,"Mediated Recall_Prolific",1,114,2023-02-23T22:28:04+00:00,0.5374858379364,1,versionA_stim.csv,ReadVersion.csv,Read,Read1,RAKE,SEED,Study2,M,69,77,Study,User,-,,Study/JOL,"Study Phase2",369,,,-1,-1,,,,1
55b2d3f2fdf99b525bc839aa,e8qwvteax9,"Mediated Recall_Prolific",1,115,2023-02-23T22:28:05+00:00,0.61369013786316,1,versionA_stim.csv,ReadVersion.csv,Read,Read1,SOAP,DRINK,Study2,M,67,66,Study,User,-,,Study/JOL,"Study Phase2",439,,,-1,-1,,,,1
55b2d3f2fdf99b525bc839aa,e8qwvteax9,"Mediated Recall_Prolific",1,116,2023-02-23T22:28:05+00:00,0.5654308795929,1,versionA_stim.csv,ReadVersion.csv,Read,Read1,CHILL,COLD,Study2,F,87,62,Study,User,-,,Study/JOL,"Study Phase2",400,,,-1,-1,,,,1
55b2d3f2fdf99b525bc839aa,e8qwvteax9,"Mediated Recall_Prolific",1,117,2023-02-23T22:28:06+00:00,0.69610404968262,1,versionA_stim.csv,ReadVersion.csv,Read,Read1,BLAZE,FIRE,Study2,F,81,75,Study,User,-,,Study/JOL,"Study Phase2",532,,,-1,-1,,,,1
55b2d3f2fdf99b525bc839aa,e8qwvteax9,"Mediated Recall_Prolific",1,118,2023-02-23T22:28:06+00:00,0.69135403633118,1,versionA_stim.csv,ReadVersion.csv,Read,Read1,CASH,LEG,Study2,U,105,104,Study,User,-,,Study/JOL,"Study Phase2",519,,,-1,-1,,,,1
55b2d3f2fdf99b525bc839aa,e8qwvteax9,"Mediated Recall_Prolific",1,119,2023-02-23T22:28:07+00:00,0.59550905227661,1,versionA_stim.csv,ReadVersion.csv,Read,Read1,EYES,SMELL,Study2,M,65,67,Study,User,-,,Study/JOL,"Study Phase2",422,,,-1,-1,,,,1
55b2d3f2fdf99b525bc839aa,e8qwvteax9,"Mediated Recall_Prolific",1,120,2023-02-23T22:28:08+00:00,0.65225887298584,1,versionA_stim.csv,ReadVersion.csv,Read,Read1,CHISEL,HAMMER,Study2,F,78,103,Study,User,-,,Study/JOL,"Study Phase2",483,,,-1,-1,,,,1
55b2d3f2fdf99b525bc839aa,e8qwvteax9,"Mediated Recall_Prolific",1,121,2023-02-23T22:28:08+00:00,0.63011693954468,1,versionA_stim.csv,ReadVersion.csv,Read,Read1,WASP,BUG,Study2,F,89,78,Study,User,-,,Study/JOL,"Study Phase2",468,,,-1,-1,,,,1
55b2d3f2fdf99b525bc839aa,e8qwvteax9,"Mediated Recall_Prolific",1,122,2023-02-23T22:28:09+00:00,0.58817505836487,1,versionA_stim.csv,ReadVersion.csv,Read,Read1,VALLEY,PEAK,Study2,M,73,65,Study,User,-,,Study/JOL,"Study Phase2",423,,,-1,-1,,,,1
55b2d3f2fdf99b525bc839aa,e8qwvteax9,"Mediated Recall_Prolific",1,123,2023-02-23T22:28:10+00:00,0.59207916259766,1,versionA_stim.csv,ReadVersion.csv,Read,Read1,WINDOW,KNOB,Study2,M,74,83,Study,User,-,,Study/JOL,"Study Phase2",423,,,-1,-1,,,,1
55b2d3f2fdf99b525bc839aa,e8qwvteax9,"Mediated Recall_Prolific",1,124,2023-02-23T22:28:10+00:00,0.63407492637634,1,versionA_stim.csv,ReadVersion.csv,Read,Read1,HERD,COW,Study2,F,88,86,Study,User,-,,Study/JOL,"Study Phase2",458,,,-1,-1,,,,1
55b2d3f2fdf99b525bc839aa,e8qwvteax9,"Mediated Recall_Prolific",1,125,2023-02-23T22:28:11+00:00,0.56404685974121,1,versionA_stim.csv,ReadVersion.csv,Read,Read1,REALITY,ISLAND,Study2,M,64,100,Study,User,-,,Study/JOL,"Study Phase2",393,,,-1,-1,,,,1
55b2d3f2fdf99b525bc839aa,e8qwvteax9,"Mediated Recall_Prolific",1,126,2023-02-23T22:28:11+00:00,0.58058500289917,1,versionA_stim.csv,ReadVersion.csv,Read,Read1,SCHOOL,STOP,Study2,M,62,70,Study,User,-,,Study/JOL,"Study Phase2",411,,,-1,-1,,,,1
55b2d3f2fdf99b525bc839aa,e8qwvteax9,"Mediated Recall_Prolific",1,127,2023-02-23T22:28:12+00:00,0.57978820800781,1,versionA_stim.csv,ReadVersion.csv,Read,Read1,CACTUS,PLANT,Study2,F,76,64,Study,User,-,,Study/JOL,"Study Phase2",417,,,-1,-1,,,,1
55b2d3f2fdf99b525bc839aa,e8qwvteax9,"Mediated Recall_Prolific",1,128,2023-02-23T22:28:12+00:00,0.59275388717651,1,versionA_stim.csv,ReadVersion.csv,Read,Read1,MIRROR,CHILDREN,Study2,U,104,99,Study,User,-,,Study/JOL,"Study Phase2",428,,,-1,-1,,,,1
55b2d3f2fdf99b525bc839aa,e8qwvteax9,"Mediated Recall_Prolific",1,129,2023-02-23T22:28:13+00:00,0.6397590637207,1,versionA_stim.csv,ReadVersion.csv,Read,Read1,DOCUMENT,PAPER,Study2,F,82,88,Study,User,-,,Study/JOL,"Study Phase2",480,,,-1,-1,,,,1
55b2d3f2fdf99b525bc839aa,e8qwvteax9,"Mediated Recall_Prolific",1,130,2023-02-23T22:28:14+00:00,0.65525102615356,1,versionA_stim.csv,ReadVersion.csv,Read,Read1,BENCH,HORN,Study2,U,98,81,Study,User,-,,Study/JOL,"Study Phase2",492,,,-1,-1,,,,1
55b2d3f2fdf99b525bc839aa,e8qwvteax9,"Mediated Recall_Prolific",1,131,2023-02-23T22:28:14+00:00,0.63030290603638,1,versionA_stim.csv,ReadVersion.csv,Read,Read1,HAPPY,CAR,Study2,U,92,73,Study,User,-,,Study/JOL,"Study Phase2",460,,,-1,-1,,,,1
55b2d3f2fdf99b525bc839aa,e8qwvteax9,"Mediated Recall_Prolific",1,132,2023-02-23T22:28:15+00:00,0.65671992301941,1,versionA_stim.csv,ReadVersion.csv,Read,Read1,CHERRY,RED,Study2,F,80,96,Study,User,-,,Study/JOL,"Study Phase2",487,,,-1,-1,,,,1
55b2d3f2fdf99b525bc839aa,e8qwvteax9,"Mediated Recall_Prolific",1,133,2023-02-23T22:28:16+00:00,0.63491606712341,1,versionA_stim.csv,ReadVersion.csv,Read,Read1,DIETARY,SACK,Study2,U,97,71,Study,User,-,,Study/JOL,"Study Phase2",463,,,-1,-1,,,,1
55b2d3f2fdf99b525bc839aa,e8qwvteax9,"Mediated Recall_Prolific",1,134,2023-02-23T22:28:16+00:00,0.59079098701477,1,versionA_stim.csv,ReadVersion.csv,Read,Read1,DEATH,BUSINESS,Study2,U,99,95,Study,User,-,,Study/JOL,"Study Phase2",429,,,-1,-1,,,,1
55b2d3f2fdf99b525bc839aa,e8qwvteax9,"Mediated Recall_Prolific",1,135,2023-02-23T22:28:17+00:00,0.70050311088562,1,versionA_stim.csv,ReadVersion.csv,Read,Read1,KING,VASE,Study2,U,91,101,Study,User,-,,Study/JOL,"Study Phase2",538,,,-1,-1,,,,1
55b2d3f2fdf99b525bc839aa,e8qwvteax9,"Mediated Recall_Prolific",1,136,2023-02-23T22:28:18+00:00,0.73381781578064,1,versionA_stim.csv,ReadVersion.csv,Read,Read1,GRILL,THIGH,Study2,M,72,98,Study,User,-,,Study/JOL,"Study Phase2",573,,,-1,-1,,,,1
55b2d3f2fdf99b525bc839aa,e8qwvteax9,"Mediated Recall_Prolific",1,137,2023-02-23T22:28:18+00:00,0.74096202850342,1,versionA_stim.csv,ReadVersion.csv,Read,Read1,ARTERY,BRONZE,Study2,U,103,94,Study,User,-,,Study/JOL,"Study Phase2",577,,,-1,-1,,,,1
55b2d3f2fdf99b525bc839aa,e8qwvteax9,"Mediated Recall_Prolific",1,138,2023-02-23T22:28:19+00:00,0.8444881439209,1,versionA_stim.csv,ReadVersion.csv,Read,Read1,HORNET,STING,Study2,F,85,68,Study,User,-,,Study/JOL,"Study Phase2",679,,,-1,-1,,,,1
55b2d3f2fdf99b525bc839aa,e8qwvteax9,"Mediated Recall_Prolific",1,139,2023-02-23T22:28:20+00:00,0.78031802177429,1,versionA_stim.csv,ReadVersion.csv,Read,Read1,INCENSE,SMELL,Study2,F,83,87,Study,User,-,,Study/JOL,"Study Phase2",611,,,-1,-1,,,,1
55b2d3f2fdf99b525bc839aa,e8qwvteax9,"Mediated Recall_Prolific",1,140,2023-02-23T22:28:21+00:00,0.65784001350403,1,versionA_stim.csv,ReadVersion.csv,Read,Read1,PUSH,CLUTTER,Study2,U,96,85,Study,User,-,,Study/JOL,"Study Phase2",494,,,-1,-1,,,,1
55b2d3f2fdf99b525bc839aa,e8qwvteax9,"Mediated Recall_Prolific",1,141,2023-02-23T22:28:21+00:00,0.75455594062805,1,versionA_stim.csv,ReadVersion.csv,Read,Read1,SICK,HIDE,Study2,U,100,63,Study,User,-,,Study/JOL,"Study Phase2",590,,,-1,-1,,,,1
55b2d3f2fdf99b525bc839aa,e8qwvteax9,"Mediated Recall_Prolific",1,142,2023-02-23T22:28:22+00:00,0.68439197540283,1,versionA_stim.csv,ReadVersion.csv,Read,Read1,PANTS,COLLAR,Study2,M,63,74,Study,User,-,,Study/JOL,"Study Phase2",521,,,-1,-1,,,,1
55b2d3f2fdf99b525bc839aa,e8qwvteax9,"Mediated Recall_Prolific",1,143,2023-02-23T22:28:23+00:00,0.65859508514404,1,versionA_stim.csv,ReadVersion.csv,Read,Read1,ART,WOLF,Study2,U,93,91,Study,User,-,,Study/JOL,"Study Phase2",494,,,-1,-1,,,,1
55b2d3f2fdf99b525bc839aa,e8qwvteax9,"Mediated Recall_Prolific",1,144,2023-02-23T22:28:24+00:00,0.68627691268921,1,versionA_stim.csv,ReadVersion.csv,Read,Read1,SUMMER,SNOW,Study2,M,61,79,Study,User,-,,Study/JOL,"Study Phase2",521,,,-1,-1,,,,1
55b2d3f2fdf99b525bc839aa,e8qwvteax9,"Mediated Recall_Prolific",1,145,2023-02-23T22:28:24+00:00,0.74374794960022,1,versionA_stim.csv,ReadVersion.csv,Read,Read1,FEUD,FIGHT,Study2,F,86,82,Study,User,-,,Study/JOL,"Study Phase2",575,,,-1,-1,,,,1
55b2d3f2fdf99b525bc839aa,e8qwvteax9,"Mediated Recall_Prolific",1,146,2023-02-23T22:28:25+00:00,0.68975114822388,1,versionA_stim.csv,ReadVersion.csv,Read,Read1,LEASE,TOIL,Study2,U,101,93,Study,User,-,,Study/JOL,"Study Phase2",518,,,-1,-1,,,,1
55b2d3f2fdf99b525bc839aa,e8qwvteax9,"Mediated Recall_Prolific",1,147,2023-02-23T22:28:26+00:00,0.70194387435913,1,versionA_stim.csv,ReadVersion.csv,Read,Read1,BRIDGE,WATER,Study2,F,90,105,Study,User,-,,Study/JOL,"Study Phase2",535,,,-1,-1,,,,1
55b2d3f2fdf99b525bc839aa,e8qwvteax9,"Mediated Recall_Prolific",1,148,2023-02-23T22:28:26+00:00,0.75511789321899,1,versionA_stim.csv,ReadVersion.csv,Read,Read1,TRAP,CAVE,Study2,M,70,84,Study,User,-,,Study/JOL,"Study Phase2",581,,,-1,-1,,,,1
55b2d3f2fdf99b525bc839aa,e8qwvteax9,"Mediated Recall_Prolific",1,149,2023-02-23T22:28:27+00:00,0.66349005699158,1,versionA_stim.csv,ReadVersion.csv,Read,Read1,ATTIRE,CLOTHES,Study2,F,79,92,Study,User,-,,Study/JOL,"Study Phase2",496,,,-1,-1,,,,1
55b2d3f2fdf99b525bc839aa,e8qwvteax9,"Mediated Recall_Prolific",1,150,2023-02-23T22:28:28+00:00,0.53840017318726,1,versionA_stim.csv,ReadVersion.csv,Read,Read1,BOTH,OUNCE,Study2,U,102,72,Study,User,-,,Study/JOL,"Study Phase2",372,,,-1,-1,,,,1
55b2d3f2fdf99b525bc839aa,e8qwvteax9,"Mediated Recall_Prolific",1,151,2023-02-23T22:28:28+00:00,0.68549394607544,1,versionA_stim.csv,ReadVersion.csv,Read,Read1,RAZOR,MUSCLE,Study2,M,75,80,Study,User,-,,Study/JOL,"Study Phase2",521,,,-1,-1,,,,1
55b2d3f2fdf99b525bc839aa,e8qwvteax9,"Mediated Recall_Prolific",1,152,2023-02-23T22:28:29+00:00,0.7349009513855,1,versionA_stim.csv,ReadVersion.csv,Read,Read1,LEAGUE,BASEBALL,Study2,F,84,69,Study,User,-,,Study/JOL,"Study Phase2",567,,,-1,-1,,,,1
55b2d3f2fdf99b525bc839aa,e8qwvteax9,"Mediated Recall_Prolific",1,153,2023-02-23T22:28:30+00:00,0.78671002388,1,versionA_stim.csv,ReadVersion.csv,Read,Read1,HEAVY,FEATHER,Study2,M,68,97,Study,User,-,,Study/JOL,"Study Phase2",621,,,-1,-1,,,,1
55b2d3f2fdf99b525bc839aa,e8qwvteax9,"Mediated Recall_Prolific",1,154,2023-02-23T22:28:31+00:00,0.69383597373962,1,versionA_stim.csv,ReadVersion.csv,Read,Read1,SUGAR,RIDDLE,Study2,U,95,102,Study,User,-,,Study/JOL,"Study Phase2",529,,,-1,-1,,,,1
55b2d3f2fdf99b525bc839aa,e8qwvteax9,"Mediated Recall_Prolific",1,155,2023-02-23T22:28:31+00:00,0.62487006187439,1,versionA_stim.csv,ReadVersion.csv,Read,Read1,CHOP,CUT,Study2,F,77,76,Study,User,-,,Study/JOL,"Study Phase2",457,,,-1,-1,,,,1
55b2d3f2fdf99b525bc839aa,e8qwvteax9,"Mediated Recall_Prolific",1,156,2023-02-23T22:28:32+00:00,0.69956803321838,1,versionA_stim.csv,ReadVersion.csv,Read,Read1,STRONG,ACCIDENT,Study2,U,94,106,Study,User,-,,Study/JOL,"Study Phase2",529,,,-1,-1,,,,1
55b2d3f2fdf99b525bc839aa,e8qwvteax9,"Mediated Recall_Prolific",1,157,2023-02-23T22:28:32+00:00,0.61047291755676,1,versionA_stim.csv,ReadVersion.csv,Read,Read1,NURSE,LAWYER,Study2,M,66,90,Study,User,-,,Study/JOL,"Study Phase2",320,,,-1,-1,,,,1
55b2d3f2fdf99b525bc839aa,e8qwvteax9,"Mediated Recall_Prolific",1,158,2023-02-23T22:28:33+00:00,0.63740706443787,1,versionA_stim.csv,ReadVersion.csv,Read,Read1,SPRING,MARCH,BUFFER3,Buffer,59,59,Study,User,-,,Study/JOL,BUFFER2,468,,,-1,-1,,,,1
55b2d3f2fdf99b525bc839aa,e8qwvteax9,"Mediated Recall_Prolific",1,159,2023-02-23T22:28:34+00:00,0.62582492828369,1,versionA_stim.csv,ReadVersion.csv,Read,Read1,CARROT,POTATO,BUFFER4,Buffer,106,108,Study,User,-,,Study/JOL,BUFFER2,462,,,-1,-1,,,,1
55b2d3f2fdf99b525bc839aa,e8qwvteax9,"Mediated Recall_Prolific",1,160,2023-02-23T22:28:34+00:00,0.73677086830139,1,versionA_stim.csv,ReadVersion.csv,Read,Read1,GEESE,GOOSE,BUFFER2,Buffer,51,53,Study,User,-,,Study/JOL,BUFFER2,574,,,-1,-1,,,,1
55b2d3f2fdf99b525bc839aa,e8qwvteax9,"Mediated Recall_Prolific",1,161,2023-02-23T22:28:35+00:00,0.79992413520813,1,versionA_stim.csv,ReadVersion.csv,Read,Read1,SHERRIF,POLICE,BUFFER2,Buffer,52,56,Study,User,-,,Study/JOL,BUFFER2,637,,,-1,-1,,,,1
55b2d3f2fdf99b525bc839aa,e8qwvteax9,"Mediated Recall_Prolific",1,162,2023-02-23T22:28:36+00:00,0.77703809738159,1,versionA_stim.csv,ReadVersion.csv,Read,Read1,OCTOBER,SPOOKY,BUFFER3,Buffer,60,57,Study,User,-,,Study/JOL,BUFFER2,609,,,-1,-1,,,,1
55b2d3f2fdf99b525bc839aa,e8qwvteax9,"Mediated Recall_Prolific",1,163,2023-02-23T22:28:39+00:00,3.079833984375,1,versionA_stim.csv,ReadVersion.csv,Read,Read1,,,,,,0,Instruct,User,-,"You have completed this section. Please press Enter.",Filler_Instruction,Instruct2,2915,,,-1,-1,,,,1
55b2d3f2fdf99b525bc839aa,e8qwvteax9,"Mediated Recall_Prolific",1,164,2023-02-23T22:30:39+00:00,120.29657483101,1,versionA_stim.csv,ReadVersion.csv,Read,Read1,,,,,,0,FreeRecall,120,120,"Please list the 50 US states in alphabetical order. The task will automatically advance to the next screen after two minutes.",,Filler1,120000,"Alabama, Alaska, Arizona, Arkansas, California, Colorado, Connecticut, Delaware, Florida, Georgia, Hawaii, Idaho, Illinois, Indiana, Iowa, Kansas, Kentucky, Louisiana, Maine, Maryland, Massachusetts, Michigan, Minnesota, Mississippi, Missouri, Montana, Nebraska, Nevada, New Hampshire, New Jersey, New Mexico, New York, North Carolina, North Dakota, Ohio, Oklahoma, Oregon, Pennsylvania, Rhode Island, South Carolina, South Dakota, Tennessee, Texas, Utah, Vermont, Virgin",0,4047,119967,0,0,,0.995
55b2d3f2fdf99b525bc839aa,e8qwvteax9,"Mediated Recall_Prolific",1,165,2023-02-23T22:30:51+00:00,11.685539007187,1,versionA_stim.csv,ReadVersion.csv,Read,Read1,,,,,,0,Instruct,-,10,"You will now be presented with the first word from each of the previously studied item pairs. Please type the missing word. If you do not know the word, you may guess or press Enter to skip forward to the next pair.",,Instruct3,11370,,,-1,-1,,,,1
55b2d3f2fdf99b525bc839aa,e8qwvteax9,"Mediated Recall_Prolific",1,166,2023-02-23T22:31:02+00:00,10.632614135742,1,versionA_stim.csv,ReadVersion.csv,Read,Read1,LEAGUE,BASEBALL,Study2,F,84,69,Test,User,-,,Recall,Recall2,10309,baseball,100,6807,9179,1,1,,1
55b2d3f2fdf99b525bc839aa,e8qwvteax9,"Mediated Recall_Prolific",1,167,2023-02-23T22:31:09+00:00,7.7600350379944,1,versionA_stim.csv,ReadVersion.csv,Read,Read1,FEUD,FIGHT,Study2,F,86,82,Test,User,-,,Recall,Recall2,7449,fight,100,5084,5907,1,1,,1
55b2d3f2fdf99b525bc839aa,e8qwvteax9,"Mediated Recall_Prolific",1,168,2023-02-23T22:31:33+00:00,23.458781957626,1,versionA_stim.csv,ReadVersion.csv,Read,Read1,SICK,HIDE,Study2,U,100,63,Test,User,-,,Recall,Recall2,23157,HIDE,100,21434,22036,1,1,,1
55b2d3f2fdf99b525bc839aa,e8qwvteax9,"Mediated Recall_Prolific",1,169,2023-02-23T22:31:41+00:00,8.372633934021,1,versionA_stim.csv,ReadVersion.csv,Read,Read1,CHOP,CUT,Study2,F,77,76,Test,User,-,,Recall,Recall2,8076,CUT,100,6135,6887,1,1,,1
55b2d3f2fdf99b525bc839aa,e8qwvteax9,"Mediated Recall_Prolific",1,170,2023-02-23T22:31:50+00:00,8.9708158969879,1,versionA_stim.csv,ReadVersion.csv,Read,Read1,STRONG,ACCIDENT,Study2,U,94,106,Test,User,-,,Recall,Recall2,8658,ACCIDENT,100,4985,7511,1,1,,1
55b2d3f2fdf99b525bc839aa,e8qwvteax9,"Mediated Recall_Prolific",1,171,2023-02-23T22:32:07+00:00,16.850831031799,1,versionA_stim.csv,ReadVersion.csv,Read,Read1,ARTERY,BRONZE,Study2,U,103,94,Test,User,-,,Recall,Recall2,16554,BRONZE,100,13529,15178,1,1,,1
55b2d3f2fdf99b525bc839aa,e8qwvteax9,"Mediated Recall_Prolific",1,172,2023-02-23T22:32:50+00:00,42.490586996078,1,versionA_stim.csv,ReadVersion.csv,Read,Read1,KING,VASE,Study2,U,91,101,Test,User,-,,Recall,Recall2,42189,VASE,100,39561,40328,1,1,,1
55b2d3f2fdf99b525bc839aa,e8qwvteax9,"Mediated Recall_Prolific",1,173,2023-02-23T22:33:02+00:00,12.76397895813,1,versionA_stim.csv,ReadVersion.csv,Read,Read1,HERD,COW,Study2,F,88,86,Test,User,-,,Recall,Recall2,12465,COW,100,10036,11154,1,1,,1
55b2d3f2fdf99b525bc839aa,e8qwvteax9,"Mediated Recall_Prolific",1,174,2023-02-23T22:33:10+00:00,7.5498502254486,1,versionA_stim.csv,ReadVersion.csv,Read,Read1,DIETARY,SACK,Study2,U,97,71,Test,User,-,,Recall,Recall2,7237,SACK,100,4833,6033,1,1,,1
55b2d3f2fdf99b525bc839aa,e8qwvteax9,"Mediated Recall_Prolific",1,175,2023-02-23T22:33:36+00:00,26.219167947769,1,versionA_stim.csv,ReadVersion.csv,Read,Read1,INCENSE,SMELL,Study2,F,83,87,Test,User,-,,Recall,Recall2,25917,SMELL,100,21878,23578,1,1,,1
55b2d3f2fdf99b525bc839aa,e8qwvteax9,"Mediated Recall_Prolific",1,176,2023-02-23T22:34:13+00:00,37.245939970016,1,versionA_stim.csv,ReadVersion.csv,Read,Read1,ATTIRE,CLOTHES,Study2,F,79,92,Test,User,-,,Recall,Recall2,36938,CLOTHES,100,25057,26703,1,1,,1
55b2d3f2fdf99b525bc839aa,e8qwvteax9,"Mediated Recall_Prolific",1,177,2023-02-23T22:34:42+00:00,29.057324886322,1,versionA_stim.csv,ReadVersion.csv,Read,Read1,BRIDGE,WATER,Study2,F,90,105,Test,User,-,,Recall,Recall2,28747,WATER,100,26541,27642,1,1,,1
55b2d3f2fdf99b525bc839aa,e8qwvteax9,"Mediated Recall_Prolific",1,178,2023-02-23T22:34:47+00:00,4.3116471767426,1,versionA_stim.csv,ReadVersion.csv,Read,Read1,GRILL,THIGH,Study2,M,72,98,Test,User,-,,Recall,Recall2,4138,SMOKE,0,3076,3688,0,0,,1
55b2d3f2fdf99b525bc839aa,e8qwvteax9,"Mediated Recall_Prolific",1,179,2023-02-23T22:34:50+00:00,3.0551278591156,1,versionA_stim.csv,ReadVersion.csv,Read,Read1,NURSE,LAWYER,Study2,M,66,90,Test,User,-,,Recall,Recall2,2879,DOCTOR,16.666666666667,1188,2730,0,0,,1
55b2d3f2fdf99b525bc839aa,e8qwvteax9,"Mediated Recall_Prolific",1,180,2023-02-23T22:34:52+00:00,2.1738150119781,1,versionA_stim.csv,ReadVersion.csv,Read,Read1,VALLEY,PEAK,Study2,M,73,65,Test,User,-,,Recall,Recall2,1996,HILL,0,1317,1793,0,0,,1
55b2d3f2fdf99b525bc839aa,e8qwvteax9,"Mediated Recall_Prolific",1,181,2023-02-23T22:34:56+00:00,4.1375060081482,1,versionA_stim.csv,ReadVersion.csv,Read,Read1,EYES,SMELL,Study2,M,65,67,Test,User,-,,Recall,Recall2,3966,VISION,18.181818181818,1679,3777,0,0,,1
55b2d3f2fdf99b525bc839aa,e8qwvteax9,"Mediated Recall_Prolific",1,182,2023-02-23T22:34:58+00:00,2.0218091011047,1,versionA_stim.csv,ReadVersion.csv,Read,Read1,SOAP,DRINK,Study2,M,67,66,Test,User,-,,Recall,Recall2,1854,WASH,0,1288,1607,0,0,,1
55b2d3f2fdf99b525bc839aa,e8qwvteax9,"Mediated Recall_Prolific",1,183,2023-02-23T22:35:00+00:00,1.8397579193115,1,versionA_stim.csv,ReadVersion.csv,Read,Read1,BENCH,HORN,Study2,U,98,81,Test,User,-,,Recall,Recall2,1668,WARMER,20,1083,1557,0,0,,1
55b2d3f2fdf99b525bc839aa,e8qwvteax9,"Mediated Recall_Prolific",1,184,2023-02-23T22:35:02+00:00,2.3095810413361,1,versionA_stim.csv,ReadVersion.csv,Read,Read1,TRAP,CAVE,Study2,M,70,84,Test,User,-,,Recall,Recall2,2144,HAZARD,20,1300,2017,0,0,,1
55b2d3f2fdf99b525bc839aa,e8qwvteax9,"Mediated Recall_Prolific",1,185,2023-02-23T22:35:05+00:00,2.8945870399475,1,versionA_stim.csv,ReadVersion.csv,Read,Read1,HORNET,STING,Study2,F,85,68,Test,User,-,,Recall,Recall2,2719,NEST,44.444444444444,1155,2640,0,0,,1
55b2d3f2fdf99b525bc839aa,e8qwvteax9,"Mediated Recall_Prolific",1,186,2023-02-23T22:35:07+00:00,2.182590007782,1,versionA_stim.csv,ReadVersion.csv,Read,Read1,SCHOOL,STOP,Study2,M,62,70,Test,User,-,,Recall,Recall2,2011,WORK,25,1479,1802,0,0,,1
55b2d3f2fdf99b525bc839aa,e8qwvteax9,"Mediated Recall_Prolific",1,187,2023-02-23T22:35:10+00:00,2.6282768249512,1,versionA_stim.csv,ReadVersion.csv,Read,Read1,CHISEL,HAMMER,Study2,F,78,103,Test,User,-,,Recall,Recall2,2452,METAL,36.363636363636,1861,2253,0,0,,1
55b2d3f2fdf99b525bc839aa,e8qwvteax9,"Mediated Recall_Prolific",1,188,2023-02-23T22:35:12+00:00,1.8115911483765,1,versionA_stim.csv,ReadVersion.csv,Read,Read1,CHERRY,RED,Study2,F,80,96,Test,User,-,,Recall,Recall2,1642,POP,0,1087,1441,0,0,,1
55b2d3f2fdf99b525bc839aa,e8qwvteax9,"Mediated Recall_Prolific",1,189,2023-02-23T22:35:15+00:00,2.8048670291901,1,versionA_stim.csv,ReadVersion.csv,Read,Read1,RAKE,SEED,Study2,M,69,77,Test,User,-,,Recall,Recall2,2635,LEAVES,40,1290,2088,0,0,,1
55b2d3f2fdf99b525bc839aa,e8qwvteax9,"Mediated Recall_Prolific",1,190,2023-02-23T22:35:18+00:00,3.4218919277191,1,versionA_stim.csv,ReadVersion.csv,Read,Read1,ART,WOLF,Study2,U,93,91,Test,User,-,,Recall,Recall2,3240,DRAWING,18.181818181818,2038,3029,0,0,,1
55b2d3f2fdf99b525bc839aa,e8qwvteax9,"Mediated Recall_Prolific",1,191,2023-02-23T22:35:21+00:00,3.2837550640106,1,versionA_stim.csv,ReadVersion.csv,Read,Read1,LEASE,TOIL,Study2,U,101,93,Test,User,-,,Recall,Recall2,3115,OWN,28.571428571429,2453,2700,0,0,,1
55b2d3f2fdf99b525bc839aa,e8qwvteax9,"Mediated Recall_Prolific",1,192,2023-02-23T22:35:25+00:00,3.360985994339,1,versionA_stim.csv,ReadVersion.csv,Read,Read1,CACTUS,PLANT,Study2,F,76,64,Test,User,-,,Recall,Recall2,3191,SALT,44.444444444444,2648,3006,0,0,,1
55b2d3f2fdf99b525bc839aa,e8qwvteax9,"Mediated Recall_Prolific",1,193,2023-02-23T22:35:27+00:00,2.4138000011444,1,versionA_stim.csv,ReadVersion.csv,Read,Read1,RAZOR,MUSCLE,Study2,M,75,80,Test,User,-,,Recall,Recall2,2246,SHARP,18.181818181818,1574,2051,0,0,,1
55b2d3f2fdf99b525bc839aa,e8qwvteax9,"Mediated Recall_Prolific",1,194,2023-02-23T22:35:29+00:00,1.655975818634,1,versionA_stim.csv,ReadVersion.csv,Read,Read1,HAPPY,CAR,Study2,U,92,73,Test,User,-,,Recall,Recall2,1479,SAD,33.333333333333,1186,1385,0,0,,1
55b2d3f2fdf99b525bc839aa,e8qwvteax9,"Mediated Recall_Prolific",1,195,2023-02-23T22:35:31+00:00,2.5495581626892,1,versionA_stim.csv,ReadVersion.csv,Read,Read1,WASP,BUG,Study2,F,89,78,Test,User,-,,Recall,Recall2,2378,BEE,33.333333333333,1850,2209,0,0,,1
55b2d3f2fdf99b525bc839aa,e8qwvteax9,"Mediated Recall_Prolific",1,196,2023-02-23T22:35:35+00:00,3.5219628810883,1,versionA_stim.csv,ReadVersion.csv,Read,Read1,SUGAR,RIDDLE,Study2,U,95,102,Test,User,-,,Recall,Recall2,3345,COAT,0,2748,3169,0,0,,1
55b2d3f2fdf99b525bc839aa,e8qwvteax9,"Mediated Recall_Prolific",1,197,2023-02-23T22:35:37+00:00,2.2801511287689,1,versionA_stim.csv,ReadVersion.csv,Read,Read1,HEAVY,FEATHER,Study2,M,68,97,Test,User,-,,Recall,Recall2,2111,SOFT,36.363636363636,1601,2000,0,0,,1
55b2d3f2fdf99b525bc839aa,e8qwvteax9,"Mediated Recall_Prolific",1,198,2023-02-23T22:35:44+00:00,6.6734209060669,1,versionA_stim.csv,ReadVersion.csv,Read,Read1,WINDOW,KNOB,Study2,M,74,83,Test,User,-,,Recall,Recall2,6368,CLEAN,22.222222222222,5476,5873,0,0,,1
55b2d3f2fdf99b525bc839aa,e8qwvteax9,"Mediated Recall_Prolific",1,199,2023-02-23T22:35:46+00:00,2.5717461109161,1,versionA_stim.csv,ReadVersion.csv,Read,Read1,BOTH,OUNCE,Study2,U,102,72,Test,User,-,,Recall,Recall2,2390,ONE,75,1800,2082,0,1,,1
55b2d3f2fdf99b525bc839aa,e8qwvteax9,"Mediated Recall_Prolific",1,200,2023-02-23T22:35:49+00:00,2.1769278049469,1,versionA_stim.csv,ReadVersion.csv,Read,Read1,OVEN,BASKET,Study2,M,71,89,Test,User,-,,Recall,Recall2,2003,ROAST,54.545454545455,1426,1929,0,0,,1
55b2d3f2fdf99b525bc839aa,e8qwvteax9,"Mediated Recall_Prolific",1,201,2023-02-23T22:35:51+00:00,2.7958290576935,1,versionA_stim.csv,ReadVersion.csv,Read,Read1,REALITY,ISLAND,Study2,M,64,100,Test,User,-,,Recall,Recall2,2626,FICTION,30.769230769231,1642,2418,0,0,,1
55b2d3f2fdf99b525bc839aa,e8qwvteax9,"Mediated Recall_Prolific",1,202,2023-02-23T22:35:54+00:00,2.4810030460358,1,versionA_stim.csv,ReadVersion.csv,Read,Read1,PANTS,COLLAR,Study2,M,63,74,Test,User,-,,Recall,Recall2,2313,SHORTS,33.333333333333,1536,2219,0,0,,1
55b2d3f2fdf99b525bc839aa,e8qwvteax9,"Mediated Recall_Prolific",1,203,2023-02-23T22:35:58+00:00,4.5227539539337,1,versionA_stim.csv,ReadVersion.csv,Read,Read1,DOCUMENT,PAPER,Study2,F,82,88,Test,User,-,,Recall,Recall2,4347,TAPE,66.666666666667,3860,4222,0,0,,1
55b2d3f2fdf99b525bc839aa,e8qwvteax9,"Mediated Recall_Prolific",1,204,2023-02-23T22:36:00+00:00,1.835067987442,1,versionA_stim.csv,ReadVersion.csv,Read,Read1,PUSH,CLUTTER,Study2,U,96,85,Test,User,-,,Recall,Recall2,1671,SHOVE,16.666666666667,1023,1568,0,0,,1
55b2d3f2fdf99b525bc839aa,e8qwvteax9,"Mediated Recall_Prolific",1,205,2023-02-23T22:36:08+00:00,7.8551089763641,1,versionA_stim.csv,ReadVersion.csv,Read,Read1,CHILL,COLD,Study2,F,87,62,Test,User,-,,Recall,Recall2,7547,NIGHT,0,6626,7180,0,0,,1
55b2d3f2fdf99b525bc839aa,e8qwvteax9,"Mediated Recall_Prolific",1,206,2023-02-23T22:36:10+00:00,2.3831381797791,1,versionA_stim.csv,ReadVersion.csv,Read,Read1,BLAZE,FIRE,Study2,F,81,75,Test,User,-,,Recall,Recall2,2209,SMOKE,22.222222222222,1501,1991,0,0,,1
55b2d3f2fdf99b525bc839aa,e8qwvteax9,"Mediated Recall_Prolific",1,207,2023-02-23T22:36:13+00:00,2.2406120300293,1,versionA_stim.csv,ReadVersion.csv,Read,Read1,DEATH,BUSINESS,Study2,U,99,95,Test,User,-,,Recall,Recall2,2065,ALIVE,30.769230769231,1441,1950,0,0,,1
55b2d3f2fdf99b525bc839aa,e8qwvteax9,"Mediated Recall_Prolific",1,208,2023-02-23T22:36:15+00:00,1.8576128482819,1,versionA_stim.csv,ReadVersion.csv,Read,Read1,SUMMER,SNOW,Study2,M,61,79,Test,User,-,,Recall,Recall2,1680,WINTER,20,1070,1588,0,0,,1
55b2d3f2fdf99b525bc839aa,e8qwvteax9,"Mediated Recall_Prolific",1,209,2023-02-23T22:36:17+00:00,2.4907341003418,1,versionA_stim.csv,ReadVersion.csv,Read,Read1,MIRROR,CHILDREN,Study2,U,104,99,Test,User,-,,Recall,Recall2,2316,FACE,33.333333333333,1865,2230,0,0,,1
55b2d3f2fdf99b525bc839aa,e8qwvteax9,"Mediated Recall_Prolific",1,210,2023-02-23T22:36:19+00:00,1.5706570148468,1,versionA_stim.csv,ReadVersion.csv,Read,Read1,CASH,LEG,Study2,U,105,104,Test,User,-,,Recall,Recall2,1384,COW,0,1050,1287,0,0,,1
55b2d3f2fdf99b525bc839aa,e8qwvteax9,"Mediated Recall_Prolific",1,211,2023-02-23T22:36:21+00:00,2.1585249900818,1,versionA_stim.csv,ReadVersion.csv,Read,Read1,,,,,,0,Instruct,User,-,"You have completed this section. Please press Enter.",,Instruct7,1993,,,-1,-1,,,,1
55b2d3f2fdf99b525bc839aa,e8qwvteax9,"Mediated Recall_Prolific",1,212,2023-02-23T22:36:23+00:00,1.7804479598999,1,versionA_stim.csv,ReadVersion.csv,Read,Read1,,,,,,0,Instruct,User,-,"The following screen will ask you a few questions abour your experience today. You must complete these questions to receive credit.",,Instruct8,1606,,,-1,-1,,,,1
