Username,ID,ExperimentName,Session,Trial,Date,TimeDif,"Condition Number","Stimuli File","Order File","Condition Description","Condition Notes",Stimuli*Cue,Stimuli*Answer,Stimuli*Shuffle,"Stimuli*Stimuli Notes",Stimuli*Value,Procedure*Item,"Procedure*Trial Type","Procedure*Max Time","Procedure*Min Time",Procedure*Text,"Procedure*Procedure Notes",Procedure*Shuffle,Procedure*,Response*RT,Response*Response,Response*Accuracy,Response*RTfirst,Response*RTlast,Response*strictAcc,Response*lenientAcc,Response*focus,Response*JOL,Response*Focus
M20301206,mtvrh2sssy,"Mediated JOLs recog_MSU",1,1,2023-04-11T19:31:53+00:00,32.004935979843,4,versionB_stim.csv,JOLVersion.csv,JOL,JOL2,,,,,,0,Instruct,-,5,"In this section, you will be presented with a series of word pairs. Please study each word pair! Your memory will be tested!",Initial_Instruct,Instruct1,,31904,,,-1,-1,,,,,0.306
M20301206,mtvrh2sssy,"Mediated JOLs recog_MSU",1,2,2023-04-11T19:32:05+00:00,11.477885007858,4,versionB_stim.csv,JOLVersion.csv,JOL,JOL2,,,,,,0,Instruct,-,10,"As you study, you will be asked to rate your ability to remember the second item in the pair on a later test. You will make these ratings using a 0 to 100 Scale.",,Instruct13,,11340,,,-1,-1,,,,,1
M20301206,mtvrh2sssy,"Mediated JOLs recog_MSU",1,3,2023-04-11T19:32:25+00:00,20.515882968903,4,versionB_stim.csv,JOLVersion.csv,JOL,JOL2,,,,,,0,Instruct,-,10,"For example, if you are given the pair CAT - DOG, a rating of 0 indicates that you would not remember DOG at test, while a rating of 100 indicates full certainty that you would remember the word DOG at test.",,Instruct14,,20362,,,-1,-1,,,,,1
M20301206,mtvrh2sssy,"Mediated JOLs recog_MSU",1,4,2023-04-11T19:32:36+00:00,11.120926141739,4,versionB_stim.csv,JOLVersion.csv,JOL,JOL2,,,,,,0,Instruct,-,10,"When making your ratings, it is criticial that you use the full range of the scale. You will be disqualified for only giving ratings of 0 or 100! After making your rating, press Enter to advance to the next pair.",,Instruct15,,10989,,,-1,-1,,,,,1
M20301206,mtvrh2sssy,"Mediated JOLs recog_MSU",1,5,2023-04-11T19:32:39+00:00,2.9483699798584,4,versionB_stim.csv,JOLVersion.csv,JOL,JOL2,,,,,,0,Instruct,User,-,"You will now begin the study. Press Enter when you are ready to begin.",,Instruct16,,2828,,,-1,-1,,,,,1
M20301206,mtvrh2sssy,"Mediated JOLs recog_MSU",1,6,2023-04-11T19:32:54+00:00,15.251556873322,4,versionB_stim.csv,JOLVersion.csv,JOL,JOL2,TOOL,SHED,BUFFER3,Buffer,3,5,JOL,User,-,"How likely are you to correctly recall the second item in the pair?|Type your response on a scale from 0-100 and then press Enter.",Study/JOL,BUFFER,,15112,,,13915,14170,,,,20,1
M20301206,mtvrh2sssy,"Mediated JOLs recog_MSU",1,7,2023-04-11T19:33:00+00:00,5.6016321182251,4,versionB_stim.csv,JOLVersion.csv,JOL,JOL2,MONTH,YEAR,BUFFER3,Buffer,2,4,JOL,User,-,"How likely are you to correctly recall the second item in the pair?|Type your response on a scale from 0-100 and then press Enter.",Study/JOL,BUFFER,,5484,,,4270,4510,,,,80,1
M20301206,mtvrh2sssy,"Mediated JOLs recog_MSU",1,8,2023-04-11T19:33:09+00:00,9.0323269367218,4,versionB_stim.csv,JOLVersion.csv,JOL,JOL2,SPRING,MARCH,BUFFER3,Buffer,4,6,JOL,User,-,"How likely are you to correctly recall the second item in the pair?|Type your response on a scale from 0-100 and then press Enter.",Study/JOL,BUFFER,,8909,,,6651,8075,,,,46,1
M20301206,mtvrh2sssy,"Mediated JOLs recog_MSU",1,9,2023-04-11T19:33:13+00:00,4.2865509986877,4,versionB_stim.csv,JOLVersion.csv,JOL,JOL2,OCTOBER,SPOOKY,BUFFER3,Buffer,5,2,JOL,User,-,"How likely are you to correctly recall the second item in the pair?|Type your response on a scale from 0-100 and then press Enter.",Study/JOL,BUFFER,,4173,,,2948,3164,,,,90,1
M20301206,mtvrh2sssy,"Mediated JOLs recog_MSU",1,10,2023-04-11T19:33:19+00:00,5.7190001010895,4,versionB_stim.csv,JOLVersion.csv,JOL,JOL2,DAYS,WEAKS,BUFFER3,Buffer,1,3,JOL,User,-,"How likely are you to correctly recall the second item in the pair?|Type your response on a scale from 0-100 and then press Enter.",Study/JOL,BUFFER,,5589,,,4682,4793,,,,68,1
M20301206,mtvrh2sssy,"Mediated JOLs recog_MSU",1,11,2023-04-11T19:33:29+00:00,9.9480600357056,4,versionB_stim.csv,JOLVersion.csv,JOL,JOL2,GRILL,THIGH,Study2,M,17,19,JOL,User,-,"How likely are you to correctly recall the second item in the pair?|Type your response on a scale from 0-100 and then press Enter.",Study/JOL,"Study Phase",,9819,,,4856,8867,,,,08,1
M20301206,mtvrh2sssy,"Mediated JOLs recog_MSU",1,12,2023-04-11T19:33:33+00:00,3.8110249042511,4,versionB_stim.csv,JOLVersion.csv,JOL,JOL2,BRIDGE,WATER,Study2,F,35,15,JOL,User,-,"How likely are you to correctly recall the second item in the pair?|Type your response on a scale from 0-100 and then press Enter.",Study/JOL,"Study Phase",,3686,,,2840,2840,,,,7,1
M20301206,mtvrh2sssy,"Mediated JOLs recog_MSU",1,13,2023-04-11T19:33:37+00:00,4.5341830253601,4,versionB_stim.csv,JOLVersion.csv,JOL,JOL2,VALLEY,PEAK,Study2,M,18,37,JOL,User,-,"How likely are you to correctly recall the second item in the pair?|Type your response on a scale from 0-100 and then press Enter.",Study/JOL,"Study Phase",,4398,,,3208,3480,,,,13,1
M20301206,mtvrh2sssy,"Mediated JOLs recog_MSU",1,14,2023-04-11T19:33:41+00:00,4.056156873703,4,versionB_stim.csv,JOLVersion.csv,JOL,JOL2,LEAGUE,BASEBALL,Study2,F,29,10,JOL,User,-,"How likely are you to correctly recall the second item in the pair?|Type your response on a scale from 0-100 and then press Enter.",Study/JOL,"Study Phase",,3930,,,2647,2798,,,,60,1
M20301206,mtvrh2sssy,"Mediated JOLs recog_MSU",1,15,2023-04-11T19:33:46+00:00,4.8969361782074,4,versionB_stim.csv,JOLVersion.csv,JOL,JOL2,WINDOW,KNOB,Study2,M,19,21,JOL,User,-,"How likely are you to correctly recall the second item in the pair?|Type your response on a scale from 0-100 and then press Enter.",Study/JOL,"Study Phase",,4772,,,3261,3904,,,,49,1
M20301206,mtvrh2sssy,"Mediated JOLs recog_MSU",1,16,2023-04-11T19:33:50+00:00,3.7691209316254,4,versionB_stim.csv,JOLVersion.csv,JOL,JOL2,CACTUS,PLANT,Study2,F,21,41,JOL,User,-,"How likely are you to correctly recall the second item in the pair?|Type your response on a scale from 0-100 and then press Enter.",Study/JOL,"Study Phase",,3645,,,2478,2695,,,,89,1
M20301206,mtvrh2sssy,"Mediated JOLs recog_MSU",1,17,2023-04-11T19:33:55+00:00,4.6567230224609,4,versionB_stim.csv,JOLVersion.csv,JOL,JOL2,CHISEL,HAMMER,Study2,F,23,31,JOL,User,-,"How likely are you to correctly recall the second item in the pair?|Type your response on a scale from 0-100 and then press Enter.",Study/JOL,"Study Phase",,4529,,,1703,4028,,,,23,1
M20301206,mtvrh2sssy,"Mediated JOLs recog_MSU",1,18,2023-04-11T19:33:59+00:00,3.8500950336456,4,versionB_stim.csv,JOLVersion.csv,JOL,JOL2,CASH,LEG,Study2,U,50,36,JOL,User,-,"How likely are you to correctly recall the second item in the pair?|Type your response on a scale from 0-100 and then press Enter.",Study/JOL,"Study Phase",,3724,,,3127,3127,,,,1,1
M20301206,mtvrh2sssy,"Mediated JOLs recog_MSU",1,19,2023-04-11T19:34:24+00:00,25.205090045929,4,versionB_stim.csv,JOLVersion.csv,JOL,JOL2,KING,VASE,Study2,U,36,16,JOL,User,-,"How likely are you to correctly recall the second item in the pair?|Type your response on a scale from 0-100 and then press Enter.",Study/JOL,"Study Phase",,25068,,,21745,21971,,,,34,1
M20301206,mtvrh2sssy,"Mediated JOLs recog_MSU",1,20,2023-04-11T19:34:24+00:00,0.47328495979309,4,versionB_stim.csv,JOLVersion.csv,JOL,JOL2,BENCH,HORN,Study2,U,43,38,JOL,User,-,"How likely are you to correctly recall the second item in the pair?|Type your response on a scale from 0-100 and then press Enter.",Study/JOL,"Study Phase",,354,,,-1,-1,,,,,1
M20301206,mtvrh2sssy,"Mediated JOLs recog_MSU",1,21,2023-04-11T19:34:27+00:00,3.1307270526886,4,versionB_stim.csv,JOLVersion.csv,JOL,JOL2,ART,WOLF,Study2,U,38,46,JOL,User,-,"How likely are you to correctly recall the second item in the pair?|Type your response on a scale from 0-100 and then press Enter.",Study/JOL,"Study Phase",,3008,,,2405,2405,,,,2,1
M20301206,mtvrh2sssy,"Mediated JOLs recog_MSU",1,22,2023-04-11T19:34:31+00:00,3.2455999851227,4,versionB_stim.csv,JOLVersion.csv,JOL,JOL2,HEAVY,FEATHER,Study2,M,13,9,JOL,User,-,"How likely are you to correctly recall the second item in the pair?|Type your response on a scale from 0-100 and then press Enter.",Study/JOL,"Study Phase",,3119,,,2028,2254,,,,78,1
M20301206,mtvrh2sssy,"Mediated JOLs recog_MSU",1,23,2023-04-11T19:34:37+00:00,6.7381579875946,4,versionB_stim.csv,JOLVersion.csv,JOL,JOL2,LEASE,TOIL,Study2,U,46,45,JOL,User,-,"How likely are you to correctly recall the second item in the pair?|Type your response on a scale from 0-100 and then press Enter.",Study/JOL,"Study Phase",,6613,,,5147,5923,,,,43,1
M20301206,mtvrh2sssy,"Mediated JOLs recog_MSU",1,24,2023-04-11T19:34:41+00:00,3.8756229877472,4,versionB_stim.csv,JOLVersion.csv,JOL,JOL2,SCHOOL,STOP,Study2,M,7,28,JOL,User,-,"How likely are you to correctly recall the second item in the pair?|Type your response on a scale from 0-100 and then press Enter.",Study/JOL,"Study Phase",,3751,,,2688,2997,,,,84,1
M20301206,mtvrh2sssy,"Mediated JOLs recog_MSU",1,25,2023-04-11T19:34:45+00:00,3.4924719333649,4,versionB_stim.csv,JOLVersion.csv,JOL,JOL2,TRAP,CAVE,Study2,M,15,32,JOL,User,-,"How likely are you to correctly recall the second item in the pair?|Type your response on a scale from 0-100 and then press Enter.",Study/JOL,"Study Phase",,3370,,,1738,2196,,,,97,1
M20301206,mtvrh2sssy,"Mediated JOLs recog_MSU",1,26,2023-04-11T19:34:48+00:00,3.7300028800964,4,versionB_stim.csv,JOLVersion.csv,JOL,JOL2,REALITY,ISLAND,Study2,M,9,24,JOL,User,-,"How likely are you to correctly recall the second item in the pair?|Type your response on a scale from 0-100 and then press Enter.",Study/JOL,"Study Phase",,3605,,,2333,2568,,,,79,1
M20301206,mtvrh2sssy,"Mediated JOLs recog_MSU",1,27,2023-04-11T19:34:51+00:00,2.4275531768799,4,versionB_stim.csv,JOLVersion.csv,JOL,JOL2,RAZOR,MUSCLE,Study2,M,20,34,JOL,User,-,"How likely are you to correctly recall the second item in the pair?|Type your response on a scale from 0-100 and then press Enter.",Study/JOL,"Study Phase",,2303,,,1278,1930,,,,44,1
M20301206,mtvrh2sssy,"Mediated JOLs recog_MSU",1,28,2023-04-11T19:34:53+00:00,2.4220449924469,4,versionB_stim.csv,JOLVersion.csv,JOL,JOL2,FEUD,FIGHT,Study2,F,31,12,JOL,User,-,"How likely are you to correctly recall the second item in the pair?|Type your response on a scale from 0-100 and then press Enter.",Study/JOL,"Study Phase",,2300,,,642,1737,,,,32,1
M20301206,mtvrh2sssy,"Mediated JOLs recog_MSU",1,29,2023-04-11T19:34:56+00:00,2.7170388698578,4,versionB_stim.csv,JOLVersion.csv,JOL,JOL2,ATTIRE,CLOTHES,Study2,F,24,35,JOL,User,-,"How likely are you to correctly recall the second item in the pair?|Type your response on a scale from 0-100 and then press Enter.",Study/JOL,"Study Phase",,2593,,,1740,1999,,,,82,1
M20301206,mtvrh2sssy,"Mediated JOLs recog_MSU",1,30,2023-04-11T19:34:59+00:00,2.6809010505676,4,versionB_stim.csv,JOLVersion.csv,JOL,JOL2,SUGAR,RIDDLE,Study2,U,40,50,JOL,User,-,"How likely are you to correctly recall the second item in the pair?|Type your response on a scale from 0-100 and then press Enter.",Study/JOL,"Study Phase",,2560,,,1953,1953,,,,2,1
M20301206,mtvrh2sssy,"Mediated JOLs recog_MSU",1,31,2023-04-11T19:35:02+00:00,3.3147070407867,4,versionB_stim.csv,JOLVersion.csv,JOL,JOL2,ARTERY,BRONZE,Study2,U,48,47,JOL,User,-,"How likely are you to correctly recall the second item in the pair?|Type your response on a scale from 0-100 and then press Enter.",Study/JOL,"Study Phase",,3192,,,1707,1952,,,,93,1
M20301206,mtvrh2sssy,"Mediated JOLs recog_MSU",1,32,2023-04-11T19:35:07+00:00,4.5143880844116,4,versionB_stim.csv,JOLVersion.csv,JOL,JOL2,NURSE,LAWYER,Study2,M,11,40,JOL,User,-,"How likely are you to correctly recall the second item in the pair?|Type your response on a scale from 0-100 and then press Enter.",Study/JOL,"Study Phase",,4390,,,2445,3275,,,,42,1
M20301206,mtvrh2sssy,"Mediated JOLs recog_MSU",1,33,2023-04-11T19:35:11+00:00,3.9997270107269,4,versionB_stim.csv,JOLVersion.csv,JOL,JOL2,BLAZE,FIRE,Study2,F,26,18,JOL,User,-,"How likely are you to correctly recall the second item in the pair?|Type your response on a scale from 0-100 and then press Enter.",Study/JOL,"Study Phase",,3879,,,2656,3162,,,,61,1
M20301206,mtvrh2sssy,"Mediated JOLs recog_MSU",1,34,2023-04-11T19:35:14+00:00,3.6985218524933,4,versionB_stim.csv,JOLVersion.csv,JOL,JOL2,PUSH,CLUTTER,Study2,U,41,49,JOL,User,-,"How likely are you to correctly recall the second item in the pair?|Type your response on a scale from 0-100 and then press Enter.",Study/JOL,"Study Phase",,3581,,,1423,2495,,,,43,1
M20301206,mtvrh2sssy,"Mediated JOLs recog_MSU",1,35,2023-04-11T19:35:17+00:00,3.1579530239105,4,versionB_stim.csv,JOLVersion.csv,JOL,JOL2,HORNET,STING,Study2,F,30,11,JOL,User,-,"How likely are you to correctly recall the second item in the pair?|Type your response on a scale from 0-100 and then press Enter.",Study/JOL,"Study Phase",,3028,,,1938,2286,,,,93,1
M20301206,mtvrh2sssy,"Mediated JOLs recog_MSU",1,36,2023-04-11T19:35:22+00:00,4.4315359592438,4,versionB_stim.csv,JOLVersion.csv,JOL,JOL2,SICK,HIDE,Study2,U,45,23,JOL,User,-,"How likely are you to correctly recall the second item in the pair?|Type your response on a scale from 0-100 and then press Enter.",Study/JOL,"Study Phase",,4313,,,2905,3333,,,,34,1
M20301206,mtvrh2sssy,"Mediated JOLs recog_MSU",1,37,2023-04-11T19:35:26+00:00,3.9132511615753,4,versionB_stim.csv,JOLVersion.csv,JOL,JOL2,MIRROR,CHILDREN,Study2,U,49,44,JOL,User,-,"How likely are you to correctly recall the second item in the pair?|Type your response on a scale from 0-100 and then press Enter.",Study/JOL,"Study Phase",,3787,,,2494,3037,,,,92,1
M20301206,mtvrh2sssy,"Mediated JOLs recog_MSU",1,38,2023-04-11T19:35:29+00:00,3.7254569530487,4,versionB_stim.csv,JOLVersion.csv,JOL,JOL2,CHERRY,RED,Study2,F,25,22,JOL,User,-,"How likely are you to correctly recall the second item in the pair?|Type your response on a scale from 0-100 and then press Enter.",Study/JOL,"Study Phase",,3597,,,2641,2850,,,,73,1
M20301206,mtvrh2sssy,"Mediated JOLs recog_MSU",1,39,2023-04-11T19:35:32+00:00,2.9291799068451,4,versionB_stim.csv,JOLVersion.csv,JOL,JOL2,WASP,BUG,Study2,F,34,42,JOL,User,-,"How likely are you to correctly recall the second item in the pair?|Type your response on a scale from 0-100 and then press Enter.",Study/JOL,"Study Phase",,2799,,,1880,1880,,,,3,1
M20301206,mtvrh2sssy,"Mediated JOLs recog_MSU",1,40,2023-04-11T19:35:37+00:00,4.2990500926971,4,versionB_stim.csv,JOLVersion.csv,JOL,JOL2,SUMMER,SNOW,Study2,M,6,25,JOL,User,-,"How likely are you to correctly recall the second item in the pair?|Type your response on a scale from 0-100 and then press Enter.",Study/JOL,"Study Phase",,4174,,,2721,3051,,,,53,1
M20301206,mtvrh2sssy,"Mediated JOLs recog_MSU",1,41,2023-04-11T19:35:41+00:00,4.4642770290375,4,versionB_stim.csv,JOLVersion.csv,JOL,JOL2,BOTH,OUNCE,Study2,U,47,17,JOL,User,-,"How likely are you to correctly recall the second item in the pair?|Type your response on a scale from 0-100 and then press Enter.",Study/JOL,"Study Phase",,4343,,,3426,3657,,,,83,1
M20301206,mtvrh2sssy,"Mediated JOLs recog_MSU",1,42,2023-04-11T19:35:44+00:00,2.5720148086548,4,versionB_stim.csv,JOLVersion.csv,JOL,JOL2,DIETARY,SACK,Study2,U,42,26,JOL,User,-,"How likely are you to correctly recall the second item in the pair?|Type your response on a scale from 0-100 and then press Enter.",Study/JOL,"Study Phase",,2438,,,1509,1509,,,,3,1
M20301206,mtvrh2sssy,"Mediated JOLs recog_MSU",1,43,2023-04-11T19:35:46+00:00,2.1859149932861,4,versionB_stim.csv,JOLVersion.csv,JOL,JOL2,SOAP,DRINK,Study2,M,12,43,JOL,User,-,"How likely are you to correctly recall the second item in the pair?|Type your response on a scale from 0-100 and then press Enter.",Study/JOL,"Study Phase",,2059,,,972,1160,,,,39,1
M20301206,mtvrh2sssy,"Mediated JOLs recog_MSU",1,44,2023-04-11T19:35:48+00:00,2.30397605896,4,versionB_stim.csv,JOLVersion.csv,JOL,JOL2,PANTS,COLLAR,Study2,M,8,20,JOL,User,-,"How likely are you to correctly recall the second item in the pair?|Type your response on a scale from 0-100 and then press Enter.",Study/JOL,"Study Phase",,2175,,,1082,1241,,,,93,1
M20301206,mtvrh2sssy,"Mediated JOLs recog_MSU",1,45,2023-04-11T19:35:56+00:00,7.9377689361572,4,versionB_stim.csv,JOLVersion.csv,JOL,JOL2,CHILL,COLD,Study2,F,32,33,JOL,User,-,"How likely are you to correctly recall the second item in the pair?|Type your response on a scale from 0-100 and then press Enter.",Study/JOL,"Study Phase",,7802,,,1178,6693,,,,77,1
M20301206,mtvrh2sssy,"Mediated JOLs recog_MSU",1,46,2023-04-11T19:35:59+00:00,2.6478521823883,4,versionB_stim.csv,JOLVersion.csv,JOL,JOL2,CHOP,CUT,Study2,F,22,8,JOL,User,-,"How likely are you to correctly recall the second item in the pair?|Type your response on a scale from 0-100 and then press Enter.",Study/JOL,"Study Phase",,2514,,,1543,1543,,,,4,1
M20301206,mtvrh2sssy,"Mediated JOLs recog_MSU",1,47,2023-04-11T19:36:00+00:00,1.5420508384705,4,versionB_stim.csv,JOLVersion.csv,JOL,JOL2,DEATH,BUSINESS,Study2,U,44,30,JOL,User,-,"How likely are you to correctly recall the second item in the pair?|Type your response on a scale from 0-100 and then press Enter.",Study/JOL,"Study Phase",,1412,,,-1,-1,,,,,1
M20301206,mtvrh2sssy,"Mediated JOLs recog_MSU",1,48,2023-04-11T19:36:04+00:00,3.4179861545563,4,versionB_stim.csv,JOLVersion.csv,JOL,JOL2,RAKE,SEED,Study2,M,14,13,JOL,User,-,"How likely are you to correctly recall the second item in the pair?|Type your response on a scale from 0-100 and then press Enter.",Study/JOL,"Study Phase",,3292,,,2053,2404,,,,73,1
M20301206,mtvrh2sssy,"Mediated JOLs recog_MSU",1,49,2023-04-11T19:36:06+00:00,2.0241918563843,4,versionB_stim.csv,JOLVersion.csv,JOL,JOL2,HERD,COW,Study2,F,33,39,JOL,User,-,"How likely are you to correctly recall the second item in the pair?|Type your response on a scale from 0-100 and then press Enter.",Study/JOL,"Study Phase",,1897,,,1054,1428,,,,42,1
M20301206,mtvrh2sssy,"Mediated JOLs recog_MSU",1,50,2023-04-11T19:36:08+00:00,2.1017391681671,4,versionB_stim.csv,JOLVersion.csv,JOL,JOL2,EYES,SMELL,Study2,M,10,14,JOL,User,-,"How likely are you to correctly recall the second item in the pair?|Type your response on a scale from 0-100 and then press Enter.",Study/JOL,"Study Phase",,1975,,,1008,1325,,,,23,1
M20301206,mtvrh2sssy,"Mediated JOLs recog_MSU",1,51,2023-04-11T19:36:10+00:00,2.5238919258118,4,versionB_stim.csv,JOLVersion.csv,JOL,JOL2,STRONG,ACCIDENT,Study2,U,39,48,JOL,User,-,"How likely are you to correctly recall the second item in the pair?|Type your response on a scale from 0-100 and then press Enter.",Study/JOL,"Study Phase",,2397,,,1561,1777,,,,53,1
M20301206,mtvrh2sssy,"Mediated JOLs recog_MSU",1,52,2023-04-11T19:36:13+00:00,2.7068500518799,4,versionB_stim.csv,JOLVersion.csv,JOL,JOL2,DOCUMENT,PAPER,Study2,F,27,7,JOL,User,-,"How likely are you to correctly recall the second item in the pair?|Type your response on a scale from 0-100 and then press Enter.",Study/JOL,"Study Phase",,2580,,,1514,1763,,,,42,1
M20301206,mtvrh2sssy,"Mediated JOLs recog_MSU",1,53,2023-04-11T19:36:16+00:00,2.9875268936157,4,versionB_stim.csv,JOLVersion.csv,JOL,JOL2,INCENSE,SMELL,Study2,F,28,27,JOL,User,-,"How likely are you to correctly recall the second item in the pair?|Type your response on a scale from 0-100 and then press Enter.",Study/JOL,"Study Phase",,2854,,,2065,2368,,,,42,1
M20301206,mtvrh2sssy,"Mediated JOLs recog_MSU",1,54,2023-04-11T19:36:18+00:00,2.0192770957947,4,versionB_stim.csv,JOLVersion.csv,JOL,JOL2,OVEN,BASKET,Study2,M,16,51,JOL,User,-,"How likely are you to correctly recall the second item in the pair?|Type your response on a scale from 0-100 and then press Enter.",Study/JOL,"Study Phase",,1904,,,981,1403,,,,15,1
M20301206,mtvrh2sssy,"Mediated JOLs recog_MSU",1,55,2023-04-11T19:36:20+00:00,2.2904298305511,4,versionB_stim.csv,JOLVersion.csv,JOL,JOL2,HAPPY,CAR,Study2,U,37,29,JOL,User,-,"How likely are you to correctly recall the second item in the pair?|Type your response on a scale from 0-100 and then press Enter.",Study/JOL,"Study Phase",,2165,,,416,1665,,,,18,1
M20301206,mtvrh2sssy,"Mediated JOLs recog_MSU",1,56,2023-04-11T19:36:23+00:00,2.8627920150757,4,versionB_stim.csv,JOLVersion.csv,JOL,JOL2,CAMP,ADVENTURE,BUFFER4,Buffer,55,56,JOL,User,-,"How likely are you to correctly recall the second item in the pair?|Type your response on a scale from 0-100 and then press Enter.",Study/JOL,BUFFER2,,2734,,,1360,1681,,,,93,1
M20301206,mtvrh2sssy,"Mediated JOLs recog_MSU",1,57,2023-04-11T19:36:30+00:00,7.0660390853882,4,versionB_stim.csv,JOLVersion.csv,JOL,JOL2,ICE,FROZEN,BUFFER4,Buffer,54,52,JOL,User,-,"How likely are you to correctly recall the second item in the pair?|Type your response on a scale from 0-100 and then press Enter.",Study/JOL,BUFFER2,,6909,,,1233,5759,,,,89,1
M20301206,mtvrh2sssy,"Mediated JOLs recog_MSU",1,58,2023-04-11T19:36:33+00:00,2.7306749820709,4,versionB_stim.csv,JOLVersion.csv,JOL,JOL2,NOODLE,STRING,BUFFER4,Buffer,52,54,JOL,User,-,"How likely are you to correctly recall the second item in the pair?|Type your response on a scale from 0-100 and then press Enter.",Study/JOL,BUFFER2,,2601,,,1583,1731,,,,69,1
M20301206,mtvrh2sssy,"Mediated JOLs recog_MSU",1,59,2023-04-11T19:36:37+00:00,3.8249480724335,4,versionB_stim.csv,JOLVersion.csv,JOL,JOL2,CARROT,POTATO,BUFFER4,Buffer,51,53,JOL,User,-,"How likely are you to correctly recall the second item in the pair?|Type your response on a scale from 0-100 and then press Enter.",Study/JOL,BUFFER2,,3694,,,2399,2767,,,,74,1
M20301206,mtvrh2sssy,"Mediated JOLs recog_MSU",1,60,2023-04-11T19:36:40+00:00,3.2812459468842,4,versionB_stim.csv,JOLVersion.csv,JOL,JOL2,SHRIMP,FISH,BUFFER4,Buffer,53,55,JOL,User,-,"How likely are you to correctly recall the second item in the pair?|Type your response on a scale from 0-100 and then press Enter.",Study/JOL,BUFFER2,,3154,,,2286,2487,,,,99,1
M20301206,mtvrh2sssy,"Mediated JOLs recog_MSU",1,61,2023-04-11T19:36:43+00:00,2.3135390281677,4,versionB_stim.csv,JOLVersion.csv,JOL,JOL2,,,,,,0,Instruct,User,-,"You have completed this section. Please press Enter.",Filler_Instruction,Instruct2,,2190,,,-1,-1,,,,,1
M20301206,mtvrh2sssy,"Mediated JOLs recog_MSU",1,62,2023-04-11T19:38:43+00:00,120.26510190964,4,versionB_stim.csv,JOLVersion.csv,JOL,JOL2,,,,,,0,FreeRecall,120,120,"Please list the 50 US states in alphabetical order. The task will automatically advance to the next screen after two minutes.",,Filler1,,120002,"Alabama, Alaska, Arizona, Arkansas, California, Colorado, Connecticut, Delaware,",0,12586,110092,0,0,,,1
M20301206,mtvrh2sssy,"Mediated JOLs recog_MSU",1,63,2023-04-11T19:39:00+00:00,17.317370176315,4,versionB_stim.csv,JOLVersion.csv,JOL,JOL2,,,,,,0,Instruct,User,10,"Your memory will now be tested. You will be presented with a series of words that may or may not have previously been presented alongisde another word. If the word on the screen was previously studied, please select YES. If the word was not studied, select NO. PLEASE DO NOT SKIP ITEMS! Click next when you are ready to begin.",,Instruc7982154d,,17155,,,-1,-1,,,,,1
M20301206,mtvrh2sssy,"Mediated JOLs recog_MSU",1,64,2023-04-11T19:39:04+00:00,3.6472389698029,4,versionB_stim.csv,JOLVersion.csv,JOL,JOL2,,DONKEY,RECOG,Control,79,98,Likert,User,1,"Was this item previously studied?",CONTROL,Recog,1::2,3519,NO,25,-1,-1,0,0,,,1
M20301206,mtvrh2sssy,"Mediated JOLs recog_MSU",1,65,2023-04-11T19:39:06+00:00,2.7283890247345,4,versionB_stim.csv,JOLVersion.csv,JOL,JOL2,,CUT,RECOG,Presented,122,87,Likert,User,1,"Was this item previously studied?",CONTROL,Recog,1::2,2598,YES,0,-1,-1,0,0,,,1
M20301206,mtvrh2sssy,"Mediated JOLs recog_MSU",1,66,2023-04-11T19:39:10+00:00,3.0847599506378,4,versionB_stim.csv,JOLVersion.csv,JOL,JOL2,,BELT,RECOG,Control,101,104,Likert,User,1,"Was this item previously studied?",PRESENTED,Recog,1::2,2959,NO,0,-1,-1,0,0,,,1
M20301206,mtvrh2sssy,"Mediated JOLs recog_MSU",1,67,2023-04-11T19:39:12+00:00,2.7634110450745,4,versionB_stim.csv,JOLVersion.csv,JOL,JOL2,,FIGHT,RECOG,Presented,131,131,Likert,User,1,"Was this item previously studied?",PRESENTED,Recog,1::2,2643,YES,0,-1,-1,0,0,,,1
M20301206,mtvrh2sssy,"Mediated JOLs recog_MSU",1,68,2023-04-11T19:39:15+00:00,2.4786059856415,4,versionB_stim.csv,JOLVersion.csv,JOL,JOL2,,DANCE,RECOG,Control,68,58,Likert,User,1,"Was this item previously studied?",CONTROL,Recog,1::2,2352,NO,28.571428571429,-1,-1,0,0,,,1
M20301206,mtvrh2sssy,"Mediated JOLs recog_MSU",1,69,2023-04-11T19:39:20+00:00,4.9404239654541,4,versionB_stim.csv,JOLVersion.csv,JOL,JOL2,,FLOWER,RECOG,Control,89,137,Likert,User,1,"Was this item previously studied?",PRESENTED,Recog,1::2,4817,NO,25,-1,-1,0,0,,,1
M20301206,mtvrh2sssy,"Mediated JOLs recog_MSU",1,70,2023-04-11T19:39:22+00:00,2.2143740653992,4,versionB_stim.csv,JOLVersion.csv,JOL,JOL2,,SILK,RECOG,Control,65,94,Likert,User,1,"Was this item previously studied?",CONTROL,Recog,1::2,2087,NO,0,-1,-1,0,0,,,1
M20301206,mtvrh2sssy,"Mediated JOLs recog_MSU",1,71,2023-04-11T19:39:24+00:00,2.4226269721985,4,versionB_stim.csv,JOLVersion.csv,JOL,JOL2,,MORNING,RECOG,Control,103,128,Likert,User,1,"Was this item previously studied?",PRESENTED,Recog,1::2,2273,NO,22.222222222222,-1,-1,0,0,,,1
M20301206,mtvrh2sssy,"Mediated JOLs recog_MSU",1,72,2023-04-11T19:39:26+00:00,2.0488078594208,4,versionB_stim.csv,JOLVersion.csv,JOL,JOL2,,SMELL,RECOG,Presented,128,89,Likert,User,1,"Was this item previously studied?",CONTROL,Recog,1::2,1918,NO,0,-1,-1,0,0,,,1
M20301206,mtvrh2sssy,"Mediated JOLs recog_MSU",1,73,2023-04-11T19:39:28+00:00,1.9496281147003,4,versionB_stim.csv,JOLVersion.csv,JOL,JOL2,,HORN,RECOG,Presented,143,57,Likert,User,1,"Was this item previously studied?",CONTROL,Recog,1::2,1821,NO,33.333333333333,-1,-1,0,0,,,1
M20301206,mtvrh2sssy,"Mediated JOLs recog_MSU",1,74,2023-04-11T19:39:30+00:00,1.9558489322662,4,versionB_stim.csv,JOLVersion.csv,JOL,JOL2,,DRINK,RECOG,Presented,112,79,Likert,User,1,"Was this item previously studied?",CONTROL,Recog,1::2,1830,NO,28.571428571429,-1,-1,0,0,,,1
M20301206,mtvrh2sssy,"Mediated JOLs recog_MSU",1,75,2023-04-11T19:39:32+00:00,1.8169009685516,4,versionB_stim.csv,JOLVersion.csv,JOL,JOL2,,SACK,RECOG,Presented,142,101,Likert,User,1,"Was this item previously studied?",CONTROL,Recog,1::2,1687,NO,0,-1,-1,0,0,,,1
M20301206,mtvrh2sssy,"Mediated JOLs recog_MSU",1,76,2023-04-11T19:39:35+00:00,2.379142999649,4,versionB_stim.csv,JOLVersion.csv,JOL,JOL2,,TOIL,RECOG,Presented,146,115,Likert,User,1,"Was this item previously studied?",PRESENTED,Recog,1::2,2255,YES,0,-1,-1,0,0,,,1
M20301206,mtvrh2sssy,"Mediated JOLs recog_MSU",1,77,2023-04-11T19:39:37+00:00,2.4961049556732,4,versionB_stim.csv,JOLVersion.csv,JOL,JOL2,,FIRE,RECOG,Presented,126,88,Likert,User,1,"Was this item previously studied?",CONTROL,Recog,1::2,2368,YES,28.571428571429,-1,-1,0,0,,,1
M20301206,mtvrh2sssy,"Mediated JOLs recog_MSU",1,78,2023-04-11T19:39:39+00:00,1.6260540485382,4,versionB_stim.csv,JOLVersion.csv,JOL,JOL2,,LAWYER,RECOG,Presented,111,119,Likert,User,1,"Was this item previously studied?",PRESENTED,Recog,1::2,1506,YES,44.444444444444,-1,-1,0,0,,,1
M20301206,mtvrh2sssy,"Mediated JOLs recog_MSU",1,79,2023-04-11T19:39:40+00:00,1.6095299720764,4,versionB_stim.csv,JOLVersion.csv,JOL,JOL2,,CLUTTER,RECOG,Presented,141,132,Likert,User,1,"Was this item previously studied?",PRESENTED,Recog,1::2,1488,YES,20,-1,-1,0,0,,,1
M20301206,mtvrh2sssy,"Mediated JOLs recog_MSU",1,80,2023-04-11T19:39:43+00:00,3.0289280414581,4,versionB_stim.csv,JOLVersion.csv,JOL,JOL2,,CHARM,RECOG,Control,95,111,Likert,User,1,"Was this item previously studied?",PRESENTED,Recog,1::2,2903,NO,0,-1,-1,0,0,,,1
M20301206,mtvrh2sssy,"Mediated JOLs recog_MSU",1,81,2023-04-11T19:39:45+00:00,1.9015641212463,4,versionB_stim.csv,JOLVersion.csv,JOL,JOL2,,COW,RECOG,Presented,133,84,Likert,User,1,"Was this item previously studied?",CONTROL,Recog,1::2,1777,YES,0,-1,-1,0,0,,,1
M20301206,mtvrh2sssy,"Mediated JOLs recog_MSU",1,82,2023-04-11T19:39:47+00:00,1.7930037975311,4,versionB_stim.csv,JOLVersion.csv,JOL,JOL2,,KNOB,RECOG,Presented,119,103,Likert,User,1,"Was this item previously studied?",PRESENTED,Recog,1::2,1665,YES,0,-1,-1,0,0,,,1
M20301206,mtvrh2sssy,"Mediated JOLs recog_MSU",1,83,2023-04-11T19:39:49+00:00,1.8129570484161,4,versionB_stim.csv,JOLVersion.csv,JOL,JOL2,,SHAKE,RECOG,Control,98,65,Likert,User,1,"Was this item previously studied?",CONTROL,Recog,1::2,1677,YES,25,-1,-1,0,0,,,1
M20301206,mtvrh2sssy,"Mediated JOLs recog_MSU",1,84,2023-04-11T19:39:51+00:00,1.7813031673431,4,versionB_stim.csv,JOLVersion.csv,JOL,JOL2,,COLLAR,RECOG,Presented,108,123,Likert,User,1,"Was this item previously studied?",PRESENTED,Recog,1::2,1647,YES,0,-1,-1,0,0,,,1
M20301206,mtvrh2sssy,"Mediated JOLs recog_MSU",1,85,2023-04-11T19:39:53+00:00,2.2930829524994,4,versionB_stim.csv,JOLVersion.csv,JOL,JOL2,,VASE,RECOG,Presented,136,114,Likert,User,1,"Was this item previously studied?",PRESENTED,Recog,1::2,2168,YES,28.571428571429,-1,-1,0,0,,,1
M20301206,mtvrh2sssy,"Mediated JOLs recog_MSU",1,86,2023-04-11T19:39:55+00:00,1.7194828987122,4,versionB_stim.csv,JOLVersion.csv,JOL,JOL2,,RIDDLE,RECOG,Presented,140,138,Likert,User,1,"Was this item previously studied?",PRESENTED,Recog,1::2,1595,YES,22.222222222222,-1,-1,0,0,,,1
M20301206,mtvrh2sssy,"Mediated JOLs recog_MSU",1,87,2023-04-11T19:39:56+00:00,1.6858899593353,4,versionB_stim.csv,JOLVersion.csv,JOL,JOL2,,CLOTH,RECOG,Control,92,130,Likert,User,1,"Was this item previously studied?",PRESENTED,Recog,1::2,1560,YES,0,-1,-1,0,0,,,1
M20301206,mtvrh2sssy,"Mediated JOLs recog_MSU",1,88,2023-04-11T19:39:59+00:00,2.4151911735535,4,versionB_stim.csv,JOLVersion.csv,JOL,JOL2,,BIRD,RECOG,Control,81,107,Likert,User,1,"Was this item previously studied?",PRESENTED,Recog,1::2,2287,NO,0,-1,-1,0,0,,,1
M20301206,mtvrh2sssy,"Mediated JOLs recog_MSU",1,89,2023-04-11T19:40:01+00:00,2.3042149543762,4,versionB_stim.csv,JOLVersion.csv,JOL,JOL2,,RED,RECOG,Presented,125,80,Likert,User,1,"Was this item previously studied?",CONTROL,Recog,1::2,2169,YES,33.333333333333,-1,-1,0,0,,,1
M20301206,mtvrh2sssy,"Mediated JOLs recog_MSU",1,90,2023-04-11T19:40:03+00:00,1.5174028873444,4,versionB_stim.csv,JOLVersion.csv,JOL,JOL2,,HEAD,RECOG,Control,78,90,Likert,User,1,"Was this item previously studied?",CONTROL,Recog,1::2,1388,YES,28.571428571429,-1,-1,0,0,,,1
M20301206,mtvrh2sssy,"Mediated JOLs recog_MSU",1,91,2023-04-11T19:40:04+00:00,1.6728720664978,4,versionB_stim.csv,JOLVersion.csv,JOL,JOL2,,CAVE,RECOG,Presented,115,127,Likert,User,1,"Was this item previously studied?",PRESENTED,Recog,1::2,1543,YES,28.571428571429,-1,-1,0,0,,,1
M20301206,mtvrh2sssy,"Mediated JOLs recog_MSU",1,92,2023-04-11T19:40:06+00:00,1.577409029007,4,versionB_stim.csv,JOLVersion.csv,JOL,JOL2,,OUNCE,RECOG,Presented,147,74,Likert,User,1,"Was this item previously studied?",CONTROL,Recog,1::2,1444,YES,25,-1,-1,0,0,,,1
M20301206,mtvrh2sssy,"Mediated JOLs recog_MSU",1,93,2023-04-11T19:40:09+00:00,2.7653799057007,4,versionB_stim.csv,JOLVersion.csv,JOL,JOL2,,MONEY,RECOG,Control,77,76,Likert,User,1,"Was this item previously studied?",CONTROL,Recog,1::2,2633,NO,28.571428571429,-1,-1,0,0,,,1
M20301206,mtvrh2sssy,"Mediated JOLs recog_MSU",1,94,2023-04-11T19:40:11+00:00,2.0935101509094,4,versionB_stim.csv,JOLVersion.csv,JOL,JOL2,,TICK,RECOG,Control,102,60,Likert,User,1,"Was this item previously studied?",CONTROL,Recog,1::2,1963,NO,0,-1,-1,0,0,,,1
M20301206,mtvrh2sssy,"Mediated JOLs recog_MSU",1,95,2023-04-11T19:40:12+00:00,1.6471788883209,4,versionB_stim.csv,JOLVersion.csv,JOL,JOL2,,HAMMER,RECOG,Presented,123,66,Likert,User,1,"Was this item previously studied?",CONTROL,Recog,1::2,1520,YES,22.222222222222,-1,-1,0,0,,,1
M20301206,mtvrh2sssy,"Mediated JOLs recog_MSU",1,96,2023-04-11T19:40:14+00:00,1.7412400245667,4,versionB_stim.csv,JOLVersion.csv,JOL,JOL2,,PLANT,RECOG,Presented,121,95,Likert,User,1,"Was this item previously studied?",CONTROL,Recog,1::2,1614,YES,0,-1,-1,0,0,,,1
M20301206,mtvrh2sssy,"Mediated JOLs recog_MSU",1,97,2023-04-11T19:40:16+00:00,1.7542760372162,4,versionB_stim.csv,JOLVersion.csv,JOL,JOL2,,WATER,RECOG,Presented,135,70,Likert,User,1,"Was this item previously studied?",CONTROL,Recog,1::2,1626,YES,25,-1,-1,0,0,,,1
M20301206,mtvrh2sssy,"Mediated JOLs recog_MSU",1,98,2023-04-11T19:40:17+00:00,1.6591720581055,4,versionB_stim.csv,JOLVersion.csv,JOL,JOL2,,CLEAN,RECOG,Control,83,100,Likert,User,1,"Was this item previously studied?",CONTROL,Recog,1::2,1527,YES,25,-1,-1,0,0,,,1
M20301206,mtvrh2sssy,"Mediated JOLs recog_MSU",1,99,2023-04-11T19:40:19+00:00,1.5961339473724,4,versionB_stim.csv,JOLVersion.csv,JOL,JOL2,,ACCIDENT,RECOG,Presented,139,61,Likert,User,1,"Was this item previously studied?",CONTROL,Recog,1::2,1472,YES,18.181818181818,-1,-1,0,0,,,1
M20301206,mtvrh2sssy,"Mediated JOLs recog_MSU",1,100,2023-04-11T19:40:21+00:00,1.9447159767151,4,versionB_stim.csv,JOLVersion.csv,JOL,JOL2,,FISH,RECOG,Control,90,129,Likert,User,1,"Was this item previously studied?",PRESENTED,Recog,1::2,1824,YES,28.571428571429,-1,-1,0,0,,,1
M20301206,mtvrh2sssy,"Mediated JOLs recog_MSU",1,101,2023-04-11T19:40:23+00:00,2.0834069252014,4,versionB_stim.csv,JOLVersion.csv,JOL,JOL2,,BANG,RECOG,Control,105,77,Likert,User,1,"Was this item previously studied?",CONTROL,Recog,1::2,1953,YES,0,-1,-1,0,0,,,1
M20301206,mtvrh2sssy,"Mediated JOLs recog_MSU",1,102,2023-04-11T19:40:25+00:00,1.6068971157074,4,versionB_stim.csv,JOLVersion.csv,JOL,JOL2,,PAPER,RECOG,Presented,127,72,Likert,User,1,"Was this item previously studied?",CONTROL,Recog,1::2,1485,YES,25,-1,-1,0,0,,,1
M20301206,mtvrh2sssy,"Mediated JOLs recog_MSU",1,103,2023-04-11T19:40:27+00:00,2.4547810554504,4,versionB_stim.csv,JOLVersion.csv,JOL,JOL2,,BOTTLE,RECOG,Control,71,120,Likert,User,1,"Was this item previously studied?",PRESENTED,Recog,1::2,2320,NO,25,-1,-1,0,0,,,1
M20301206,mtvrh2sssy,"Mediated JOLs recog_MSU",1,104,2023-04-11T19:40:30+00:00,2.5170488357544,4,versionB_stim.csv,JOLVersion.csv,JOL,JOL2,,PEAK,RECOG,Presented,118,125,Likert,User,1,"Was this item previously studied?",PRESENTED,Recog,1::2,2383,YES,28.571428571429,-1,-1,0,0,,,1
M20301206,mtvrh2sssy,"Mediated JOLs recog_MSU",1,105,2023-04-11T19:40:32+00:00,2.5996351242065,4,versionB_stim.csv,JOLVersion.csv,JOL,JOL2,,BOX,RECOG,Control,62,93,Likert,User,1,"Was this item previously studied?",CONTROL,Recog,1::2,2474,NO,40,-1,-1,0,0,,,1
M20301206,mtvrh2sssy,"Mediated JOLs recog_MSU",1,106,2023-04-11T19:40:35+00:00,2.6457178592682,4,versionB_stim.csv,JOLVersion.csv,JOL,JOL2,,LOVE,RECOG,Control,86,92,Likert,User,1,"Was this item previously studied?",CONTROL,Recog,1::2,2523,NO,33.333333333333,-1,-1,0,0,,,1
M20301206,mtvrh2sssy,"Mediated JOLs recog_MSU",1,107,2023-04-11T19:40:39+00:00,4.1008260250092,4,versionB_stim.csv,JOLVersion.csv,JOL,JOL2,,ELECTION,RECOG,Control,94,144,Likert,User,1,"Was this item previously studied?",PRESENTED,Recog,1::2,3971,NO,20,-1,-1,0,0,,,1
M20301206,mtvrh2sssy,"Mediated JOLs recog_MSU",1,108,2023-04-11T19:40:42+00:00,3.0803561210632,4,versionB_stim.csv,JOLVersion.csv,JOL,JOL2,,ROD,RECOG,Control,100,124,Likert,User,1,"Was this item previously studied?",PRESENTED,Recog,1::2,2946,YES,0,-1,-1,0,0,,,1
M20301206,mtvrh2sssy,"Mediated JOLs recog_MSU",1,109,2023-04-11T19:40:44+00:00,2.0271019935608,4,versionB_stim.csv,JOLVersion.csv,JOL,JOL2,,SEED,RECOG,Presented,114,140,Likert,User,1,"Was this item previously studied?",PRESENTED,Recog,1::2,1896,YES,28.571428571429,-1,-1,0,0,,,1
M20301206,mtvrh2sssy,"Mediated JOLs recog_MSU",1,110,2023-04-11T19:40:46+00:00,2.0088398456573,4,versionB_stim.csv,JOLVersion.csv,JOL,JOL2,,COTTON,RECOG,Control,75,121,Likert,User,1,"Was this item previously studied?",PRESENTED,Recog,1::2,1873,YES,0,-1,-1,0,0,,,1
M20301206,mtvrh2sssy,"Mediated JOLs recog_MSU",1,111,2023-04-11T19:40:48+00:00,2.0016400814056,4,versionB_stim.csv,JOLVersion.csv,JOL,JOL2,,SYRUP,RECOG,Control,66,110,Likert,User,1,"Was this item previously studied?",PRESENTED,Recog,1::2,1879,NO,0,-1,-1,0,0,,,1
M20301206,mtvrh2sssy,"Mediated JOLs recog_MSU",1,112,2023-04-11T19:40:50+00:00,1.9410650730133,4,versionB_stim.csv,JOLVersion.csv,JOL,JOL2,,TRASH,RECOG,Control,76,82,Likert,User,1,"Was this item previously studied?",CONTROL,Recog,1::2,1824,YES,25,-1,-1,0,0,,,1
M20301206,mtvrh2sssy,"Mediated JOLs recog_MSU",1,113,2023-04-11T19:40:52+00:00,2.0551238059998,4,versionB_stim.csv,JOLVersion.csv,JOL,JOL2,,BASKET,RECOG,Presented,116,67,Likert,User,1,"Was this item previously studied?",CONTROL,Recog,1::2,1924,YES,22.222222222222,-1,-1,0,0,,,1
M20301206,mtvrh2sssy,"Mediated JOLs recog_MSU",1,114,2023-04-11T19:40:53+00:00,1.3994901180267,4,versionB_stim.csv,JOLVersion.csv,JOL,JOL2,,FEATHER,RECOG,Presented,113,83,Likert,User,1,"Was this item previously studied?",CONTROL,Recog,1::2,1275,YES,20,-1,-1,0,0,,,1
M20301206,mtvrh2sssy,"Mediated JOLs recog_MSU",1,115,2023-04-11T19:40:55+00:00,1.7123041152954,4,versionB_stim.csv,JOLVersion.csv,JOL,JOL2,,DARK,RECOG,Control,73,97,Likert,User,1,"Was this item previously studied?",CONTROL,Recog,1::2,1582,YES,0,-1,-1,0,0,,,1
M20301206,mtvrh2sssy,"Mediated JOLs recog_MSU",1,116,2023-04-11T19:40:57+00:00,2.1067447662354,4,versionB_stim.csv,JOLVersion.csv,JOL,JOL2,,ISLAND,RECOG,Presented,109,146,Likert,User,1,"Was this item previously studied?",PRESENTED,Recog,1::2,1977,YES,22.222222222222,-1,-1,0,0,,,1
M20301206,mtvrh2sssy,"Mediated JOLs recog_MSU",1,117,2023-04-11T19:41:00+00:00,2.7051401138306,4,versionB_stim.csv,JOLVersion.csv,JOL,JOL2,,CARPET,RECOG,Control,70,96,Likert,User,1,"Was this item previously studied?",CONTROL,Recog,1::2,2578,YES,22.222222222222,-1,-1,0,0,,,1
M20301206,mtvrh2sssy,"Mediated JOLs recog_MSU",1,118,2023-04-11T19:41:02+00:00,1.7996621131897,4,versionB_stim.csv,JOLVersion.csv,JOL,JOL2,,FICTION,RECOG,Control,99,139,Likert,User,1,"Was this item previously studied?",PRESENTED,Recog,1::2,1676,NO,22.222222222222,-1,-1,0,0,,,1
M20301206,mtvrh2sssy,"Mediated JOLs recog_MSU",1,119,2023-04-11T19:41:03+00:00,1.6348497867584,4,versionB_stim.csv,JOLVersion.csv,JOL,JOL2,,CHILDREN,RECOG,Presented,149,69,Likert,User,1,"Was this item previously studied?",CONTROL,Recog,1::2,1510,NO,20,-1,-1,0,0,,,1
M20301206,mtvrh2sssy,"Mediated JOLs recog_MSU",1,120,2023-04-11T19:41:05+00:00,1.7178330421448,4,versionB_stim.csv,JOLVersion.csv,JOL,JOL2,,CARD,RECOG,Control,88,126,Likert,User,1,"Was this item previously studied?",PRESENTED,Recog,1::2,1596,YES,0,-1,-1,0,0,,,1
M20301206,mtvrh2sssy,"Mediated JOLs recog_MSU",1,121,2023-04-11T19:41:07+00:00,2.1987590789795,4,versionB_stim.csv,JOLVersion.csv,JOL,JOL2,,BUSINESS,RECOG,Presented,144,105,Likert,User,1,"Was this item previously studied?",PRESENTED,Recog,1::2,2068,YES,36.363636363636,-1,-1,0,0,,,1
M20301206,mtvrh2sssy,"Mediated JOLs recog_MSU",1,122,2023-04-11T19:41:09+00:00,1.3299329280853,4,versionB_stim.csv,JOLVersion.csv,JOL,JOL2,,BRONZE,RECOG,Presented,148,108,Likert,User,1,"Was this item previously studied?",PRESENTED,Recog,1::2,1200,YES,22.222222222222,-1,-1,0,0,,,1
M20301206,mtvrh2sssy,"Mediated JOLs recog_MSU",1,123,2023-04-11T19:41:11+00:00,1.9641261100769,4,versionB_stim.csv,JOLVersion.csv,JOL,JOL2,,MAROON,RECOG,Control,91,106,Likert,User,1,"Was this item previously studied?",PRESENTED,Recog,1::2,1835,NO,25,-1,-1,0,0,,,1
M20301206,mtvrh2sssy,"Mediated JOLs recog_MSU",1,124,2023-04-11T19:41:13+00:00,1.9308109283447,4,versionB_stim.csv,JOLVersion.csv,JOL,JOL2,,WOLF,RECOG,Presented,138,102,Likert,User,1,"Was this item previously studied?",PRESENTED,Recog,1::2,1800,NO,33.333333333333,-1,-1,0,0,,,1
M20301206,mtvrh2sssy,"Mediated JOLs recog_MSU",1,125,2023-04-11T19:41:15+00:00,2.5118250846863,4,versionB_stim.csv,JOLVersion.csv,JOL,JOL2,,BUG,RECOG,Presented,134,135,Likert,User,1,"Was this item previously studied?",PRESENTED,Recog,1::2,2386,NO,0,-1,-1,0,0,,,1
M20301206,mtvrh2sssy,"Mediated JOLs recog_MSU",1,126,2023-04-11T19:41:16+00:00,1.3373680114746,4,versionB_stim.csv,JOLVersion.csv,JOL,JOL2,,WHEEL,RECOG,Control,69,113,Likert,User,1,"Was this item previously studied?",PRESENTED,Recog,1::2,1207,YES,25,-1,-1,0,0,,,1
M20301206,mtvrh2sssy,"Mediated JOLs recog_MSU",1,127,2023-04-11T19:41:18+00:00,2.0362539291382,4,versionB_stim.csv,JOLVersion.csv,JOL,JOL2,,DONKEY,RECOG,Control,85,62,Likert,User,1,"Was this item previously studied?",CONTROL,Recog,1::2,1908,NO,25,-1,-1,0,0,,,1
M20301206,mtvrh2sssy,"Mediated JOLs recog_MSU",1,128,2023-04-11T19:41:21+00:00,2.88543009758,4,versionB_stim.csv,JOLVersion.csv,JOL,JOL2,,LEG,RECOG,Presented,150,142,Likert,User,1,"Was this item previously studied?",PRESENTED,Recog,1::2,2761,YES,33.333333333333,-1,-1,0,0,,,1
M20301206,mtvrh2sssy,"Mediated JOLs recog_MSU",1,129,2023-04-11T19:41:23+00:00,1.4004077911377,4,versionB_stim.csv,JOLVersion.csv,JOL,JOL2,,SENTENCE,RECOG,Control,82,68,Likert,User,1,"Was this item previously studied?",CONTROL,Recog,1::2,1272,NO,20,-1,-1,0,0,,,1
M20301206,mtvrh2sssy,"Mediated JOLs recog_MSU",1,130,2023-04-11T19:41:26+00:00,3.0144011974335,4,versionB_stim.csv,JOLVersion.csv,JOL,JOL2,,BASEBALL,RECOG,Presented,129,63,Likert,User,1,"Was this item previously studied?",CONTROL,Recog,1::2,2882,YES,18.181818181818,-1,-1,0,0,,,1
M20301206,mtvrh2sssy,"Mediated JOLs recog_MSU",1,131,2023-04-11T19:41:30+00:00,4.3027548789978,4,versionB_stim.csv,JOLVersion.csv,JOL,JOL2,,DRINK,RECOG,Control,87,85,Likert,User,1,"Was this item previously studied?",CONTROL,Recog,1::2,4178,NO,28.571428571429,-1,-1,0,0,,,1
M20301206,mtvrh2sssy,"Mediated JOLs recog_MSU",1,132,2023-04-11T19:41:32+00:00,1.89515209198,4,versionB_stim.csv,JOLVersion.csv,JOL,JOL2,,CLOTHES,RECOG,Presented,124,59,Likert,User,1,"Was this item previously studied?",CONTROL,Recog,1::2,1768,YES,40,-1,-1,0,0,,,1
M20301206,mtvrh2sssy,"Mediated JOLs recog_MSU",1,133,2023-04-11T19:41:33+00:00,1.3999009132385,4,versionB_stim.csv,JOLVersion.csv,JOL,JOL2,,SMELL,RECOG,Presented,110,136,Likert,User,1,"Was this item previously studied?",PRESENTED,Recog,1::2,1271,YES,25,-1,-1,0,0,,,1
M20301206,mtvrh2sssy,"Mediated JOLs recog_MSU",1,134,2023-04-11T19:41:35+00:00,1.1990571022034,4,versionB_stim.csv,JOLVersion.csv,JOL,JOL2,,THIGH,RECOG,Presented,117,109,Likert,User,1,"Was this item previously studied?",PRESENTED,Recog,1::2,1069,YES,0,-1,-1,0,0,,,1
M20301206,mtvrh2sssy,"Mediated JOLs recog_MSU",1,135,2023-04-11T19:41:36+00:00,1.3328728675842,4,versionB_stim.csv,JOLVersion.csv,JOL,JOL2,,COLD,RECOG,Presented,132,78,Likert,User,1,"Was this item previously studied?",CONTROL,Recog,1::2,1203,YES,0,-1,-1,0,0,,,1
M20301206,mtvrh2sssy,"Mediated JOLs recog_MSU",1,136,2023-04-11T19:41:37+00:00,1.2587201595306,4,versionB_stim.csv,JOLVersion.csv,JOL,JOL2,,CAR,RECOG,Presented,137,71,Likert,User,1,"Was this item previously studied?",CONTROL,Recog,1::2,1134,YES,0,-1,-1,0,0,,,1
M20301206,mtvrh2sssy,"Mediated JOLs recog_MSU",1,137,2023-04-11T19:41:41+00:00,3.3841979503632,4,versionB_stim.csv,JOLVersion.csv,JOL,JOL2,,STRIPES,RECOG,Control,61,75,Likert,User,1,"Was this item previously studied?",CONTROL,Recog,1::2,3249,NO,0,-1,-1,0,0,,,1
M20301206,mtvrh2sssy,"Mediated JOLs recog_MSU",1,138,2023-04-11T19:41:42+00:00,1.5583519935608,4,versionB_stim.csv,JOLVersion.csv,JOL,JOL2,,MUSCLE,RECOG,Presented,120,116,Likert,User,1,"Was this item previously studied?",PRESENTED,Recog,1::2,1422,NO,0,-1,-1,0,0,,,1
M20301206,mtvrh2sssy,"Mediated JOLs recog_MSU",1,139,2023-04-11T19:41:43+00:00,1.280681848526,4,versionB_stim.csv,JOLVersion.csv,JOL,JOL2,,PIE,RECOG,Control,64,134,Likert,User,1,"Was this item previously studied?",PRESENTED,Recog,1::2,1156,NO,0,-1,-1,0,0,,,1
M20301206,mtvrh2sssy,"Mediated JOLs recog_MSU",1,140,2023-04-11T19:41:46+00:00,2.4651811122894,4,versionB_stim.csv,JOLVersion.csv,JOL,JOL2,,HAND,RECOG,Control,104,81,Likert,User,1,"Was this item previously studied?",CONTROL,Recog,1::2,2330,NO,33.333333333333,-1,-1,0,0,,,1
M20301206,mtvrh2sssy,"Mediated JOLs recog_MSU",1,141,2023-04-11T19:41:47+00:00,1.5091960430145,4,versionB_stim.csv,JOLVersion.csv,JOL,JOL2,,SLEEP,RECOG,Control,84,118,Likert,User,1,"Was this item previously studied?",PRESENTED,Recog,1::2,1380,NO,0,-1,-1,0,0,,,1
M20301206,mtvrh2sssy,"Mediated JOLs recog_MSU",1,142,2023-04-11T19:41:49+00:00,1.7421410083771,4,versionB_stim.csv,JOLVersion.csv,JOL,JOL2,,KEYS,RECOG,Control,96,122,Likert,User,1,"Was this item previously studied?",PRESENTED,Recog,1::2,1612,NO,0,-1,-1,0,0,,,1
M20301206,mtvrh2sssy,"Mediated JOLs recog_MSU",1,143,2023-04-11T19:41:50+00:00,1.2805578708649,4,versionB_stim.csv,JOLVersion.csv,JOL,JOL2,,HAIR,RECOG,Control,74,91,Likert,User,1,"Was this item previously studied?",CONTROL,Recog,1::2,1148,NO,0,-1,-1,0,0,,,1
M20301206,mtvrh2sssy,"Mediated JOLs recog_MSU",1,144,2023-04-11T19:41:52+00:00,1.7480340003967,4,versionB_stim.csv,JOLVersion.csv,JOL,JOL2,,FINGER,RECOG,Control,72,112,Likert,User,1,"Was this item previously studied?",PRESENTED,Recog,1::2,1611,NO,25,-1,-1,0,0,,,1
M20301206,mtvrh2sssy,"Mediated JOLs recog_MSU",1,145,2023-04-11T19:41:54+00:00,1.8101291656494,4,versionB_stim.csv,JOLVersion.csv,JOL,JOL2,,SNOW,RECOG,Presented,106,117,Likert,User,1,"Was this item previously studied?",PRESENTED,Recog,1::2,1678,YES,28.571428571429,-1,-1,0,0,,,1
M20301206,mtvrh2sssy,"Mediated JOLs recog_MSU",1,146,2023-04-11T19:41:55+00:00,1.5440979003906,4,versionB_stim.csv,JOLVersion.csv,JOL,JOL2,,BOUNCE,RECOG,Control,67,141,Likert,User,1,"Was this item previously studied?",PRESENTED,Recog,1::2,1409,YES,22.222222222222,-1,-1,0,0,,,1
M20301206,mtvrh2sssy,"Mediated JOLs recog_MSU",1,147,2023-04-11T19:41:57+00:00,1.9124989509583,4,versionB_stim.csv,JOLVersion.csv,JOL,JOL2,,HIDE,RECOG,Presented,145,73,Likert,User,1,"Was this item previously studied?",CONTROL,Recog,1::2,1781,YES,28.571428571429,-1,-1,0,0,,,1
M20301206,mtvrh2sssy,"Mediated JOLs recog_MSU",1,148,2023-04-11T19:41:59+00:00,1.3526220321655,4,versionB_stim.csv,JOLVersion.csv,JOL,JOL2,,PHONE,RECOG,Control,97,86,Likert,User,1,"Was this item previously studied?",CONTROL,Recog,1::2,1223,YES,25,-1,-1,0,0,,,1
M20301206,mtvrh2sssy,"Mediated JOLs recog_MSU",1,149,2023-04-11T19:42:00+00:00,1.6372730731964,4,versionB_stim.csv,JOLVersion.csv,JOL,JOL2,,PLANT,RECOG,Control,80,143,Likert,User,1,"Was this item previously studied?",PRESENTED,Recog,1::2,1509,YES,0,-1,-1,0,0,,,1
M20301206,mtvrh2sssy,"Mediated JOLs recog_MSU",1,150,2023-04-11T19:42:03+00:00,2.1933808326721,4,versionB_stim.csv,JOLVersion.csv,JOL,JOL2,,QUIET,RECOG,Control,63,133,Likert,User,1,"Was this item previously studied?",PRESENTED,Recog,1::2,2058,YES,25,-1,-1,0,0,,,1
M20301206,mtvrh2sssy,"Mediated JOLs recog_MSU",1,151,2023-04-11T19:42:04+00:00,1.4946670532227,4,versionB_stim.csv,JOLVersion.csv,JOL,JOL2,,STOP,RECOG,Presented,107,64,Likert,User,1,"Was this item previously studied?",CONTROL,Recog,1::2,1359,YES,28.571428571429,-1,-1,0,0,,,1
M20301206,mtvrh2sssy,"Mediated JOLs recog_MSU",1,152,2023-04-11T19:42:06+00:00,1.4594049453735,4,versionB_stim.csv,JOLVersion.csv,JOL,JOL2,,STING,RECOG,Presented,130,99,Likert,User,1,"Was this item previously studied?",CONTROL,Recog,1::2,1326,YES,25,-1,-1,0,0,,,1
M20301206,mtvrh2sssy,"Mediated JOLs recog_MSU",1,153,2023-04-11T19:42:07+00:00,1.7034561634064,4,versionB_stim.csv,JOLVersion.csv,JOL,JOL2,,STEAK,RECOG,Control,93,145,Likert,User,1,"Was this item previously studied?",PRESENTED,Recog,1::2,1577,YES,25,-1,-1,0,0,,,1
M20301206,mtvrh2sssy,"Mediated JOLs recog_MSU",1,154,2023-04-11T19:42:10+00:00,2.3569989204407,4,versionB_stim.csv,JOLVersion.csv,JOL,JOL2,,,,,,0,Instruct,User,-,"You have completed this section. Please press Enter.",,Instruct7,,2229,,,-1,-1,,,,,1
M20301206,mtvrh2sssy,"Mediated JOLs recog_MSU",1,155,2023-04-11T19:42:14+00:00,4.4104220867157,4,versionB_stim.csv,JOLVersion.csv,JOL,JOL2,,,,,,0,Instruct,User,-,"The following screen will ask you a few questions abour your experience today. You must complete these questions to receive credit.",,Instruct8,,4279,,,-1,-1,,,,,1
