Username,ID,ExperimentName,Session,Trial,Date,TimeDif,"Condition Number","Stimuli File","Order File","Condition Description","Condition Notes",Stimuli*Cue,Stimuli*Answer,Stimuli*Shuffle,"Stimuli*Stimuli Notes",Stimuli*Value,Procedure*Item,"Procedure*Trial Type","Procedure*Max Time","Procedure*Min Time",Procedure*Text,"Procedure*Procedure Notes",Procedure*Shuffle,Procedure*,Response*RT,Response*Response,Response*Accuracy,Response*RTfirst,Response*RTlast,Response*strictAcc,Response*lenientAcc,Response*focus,Response*Focus
M20248065,l4tvlo2kg0,"Mediated JOLs recog_MSU",1,1,2023-03-17T05:27:03+00:00,5.9294998645782,1,versionA_stim.csv,ReadVersion.csv,Read,Read1,,,,,,0,Instruct,-,5,"In this section, you will be presented with a series of word pairs. Please study each word pair! Your memory will be tested!",Initial_Instruct,Instruct1,,5589,,,-1,-1,,,,1
M20248065,l4tvlo2kg0,"Mediated JOLs recog_MSU",1,2,2023-03-17T05:27:06+00:00,2.2766580581665,1,versionA_stim.csv,ReadVersion.csv,Read,Read1,,,,,,0,Instruct,User,-,"You will now begin. Press Enter when you are ready to begin.",,Instruct16,,2016,,,-1,-1,,,,1
M20248065,l4tvlo2kg0,"Mediated JOLs recog_MSU",1,3,2023-03-17T05:27:08+00:00,2.3118231296539,1,versionA_stim.csv,ReadVersion.csv,Read,Read1,TREES,GREEN,BUFFER1,Buffer,1,3,Study,User,-,,Study/JOL,BUFFER,,2045,,,-1,-1,,,,1
M20248065,l4tvlo2kg0,"Mediated JOLs recog_MSU",1,4,2023-03-17T05:27:11+00:00,2.8209059238434,1,versionA_stim.csv,ReadVersion.csv,Read,Read1,SPACE,JAM,BUFFER1,Buffer,5,4,Study,User,-,,Study/JOL,BUFFER,,2479,,,-1,-1,,,,1
M20248065,l4tvlo2kg0,"Mediated JOLs recog_MSU",1,5,2023-03-17T05:27:12+00:00,1.5851440429688,1,versionA_stim.csv,ReadVersion.csv,Read,Read1,PEANUT,BUTTER,BUFFER1,Buffer,3,6,Study,User,-,,Study/JOL,BUFFER,,1361,,,-1,-1,,,,1
M20248065,l4tvlo2kg0,"Mediated JOLs recog_MSU",1,6,2023-03-17T05:27:14+00:00,1.3980300426483,1,versionA_stim.csv,ReadVersion.csv,Read,Read1,SCARE,FRIGHT,BUFFER1,Buffer,4,5,Study,User,-,,Study/JOL,BUFFER,,1163,,,-1,-1,,,,1
M20248065,l4tvlo2kg0,"Mediated JOLs recog_MSU",1,7,2023-03-17T05:27:16+00:00,1.8924930095673,1,versionA_stim.csv,ReadVersion.csv,Read,Read1,PITCHER,CATCHER,BUFFER1,Buffer,2,2,Study,User,-,,Study/JOL,BUFFER,,1633,,,-1,-1,,,,1
M20248065,l4tvlo2kg0,"Mediated JOLs recog_MSU",1,8,2023-03-17T05:27:17+00:00,1.0799458026886,1,versionA_stim.csv,ReadVersion.csv,Read,Read1,TEMPERATURE,MORNING,Study1,U,48,37,Study,User,-,,Study/JOL,"Study Phase",,847,,,-1,-1,,,,1
M20248065,l4tvlo2kg0,"Mediated JOLs recog_MSU",1,9,2023-03-17T05:27:18+00:00,1.6640679836273,1,versionA_stim.csv,ReadVersion.csv,Read,Read1,TUNA,FISH,Study1,F,35,26,Study,User,-,,Study/JOL,"Study Phase",,1079,,,-1,-1,,,,1
M20248065,l4tvlo2kg0,"Mediated JOLs recog_MSU",1,10,2023-03-17T05:27:21+00:00,2.6464819908142,1,versionA_stim.csv,ReadVersion.csv,Read,Read1,WAR,QUIET,Study1,M,8,30,Study,User,-,,Study/JOL,"Study Phase",,2402,,,-1,-1,,,,1
M20248065,l4tvlo2kg0,"Mediated JOLs recog_MSU",1,11,2023-03-17T05:27:23+00:00,1.6827671527863,1,versionA_stim.csv,ReadVersion.csv,Read,Read1,ORCHID,FLOWER,Study1,F,34,45,Study,User,-,,Study/JOL,"Study Phase",,1426,,,-1,-1,,,,1
M20248065,l4tvlo2kg0,"Mediated JOLs recog_MSU",1,12,2023-03-17T05:27:25+00:00,1.7931790351868,1,versionA_stim.csv,ReadVersion.csv,Read,Read1,ROUGH,SILK,Study1,M,10,7,Study,User,-,,Study/JOL,"Study Phase",,1542,,,-1,-1,,,,1
M20248065,l4tvlo2kg0,"Mediated JOLs recog_MSU",1,13,2023-03-17T05:27:26+00:00,1.7637629508972,1,versionA_stim.csv,ReadVersion.csv,Read,Read1,BIRTHDAY,PIE,Study1,M,9,12,Study,User,-,,Study/JOL,"Study Phase",,1471,,,-1,-1,,,,1
M20248065,l4tvlo2kg0,"Mediated JOLs recog_MSU",1,14,2023-03-17T05:27:28+00:00,1.8258280754089,1,versionA_stim.csv,ReadVersion.csv,Read,Read1,HORSE,WHEEL,Study1,M,14,14,Study,User,-,,Study/JOL,"Study Phase",,1580,,,-1,-1,,,,1
M20248065,l4tvlo2kg0,"Mediated JOLs recog_MSU",1,15,2023-03-17T05:27:29+00:00,1.0971357822418,1,versionA_stim.csv,ReadVersion.csv,Read,Read1,DAY,DARK,Study1,M,18,13,Study,User,-,,Study/JOL,"Study Phase",,771,,,-1,-1,,,,1
M20248065,l4tvlo2kg0,"Mediated JOLs recog_MSU",1,16,2023-03-17T05:27:30+00:00,0.99778509140015,1,versionA_stim.csv,ReadVersion.csv,Read,Read1,MULE,DONKEY,Study1,F,30,33,Study,User,-,,Study/JOL,"Study Phase",,741,,,-1,-1,,,,1
M20248065,l4tvlo2kg0,"Mediated JOLs recog_MSU",1,17,2023-03-17T05:27:31+00:00,0.82501602172852,1,versionA_stim.csv,ReadVersion.csv,Read,Read1,WAGE,MONEY,Study1,F,22,31,Study,User,-,,Study/JOL,"Study Phase",,610,,,-1,-1,,,,1
M20248065,l4tvlo2kg0,"Mediated JOLs recog_MSU",1,18,2023-03-17T05:27:32+00:00,1.0037779808044,1,versionA_stim.csv,ReadVersion.csv,Read,Read1,SIP,DRINK,Study1,F,32,39,Study,User,-,,Study/JOL,"Study Phase",,801,,,-1,-1,,,,1
M20248065,l4tvlo2kg0,"Mediated JOLs recog_MSU",1,19,2023-03-17T05:27:33+00:00,1.0899178981781,1,versionA_stim.csv,ReadVersion.csv,Read,Read1,SCALP,HEAD,Study1,F,23,49,Study,User,-,,Study/JOL,"Study Phase",,793,,,-1,-1,,,,1
M20248065,l4tvlo2kg0,"Mediated JOLs recog_MSU",1,20,2023-03-17T05:27:34+00:00,0.75879621505737,1,versionA_stim.csv,ReadVersion.csv,Read,Read1,MAZE,PHONE,Study1,U,42,51,Study,User,-,,Study/JOL,"Study Phase",,520,,,-1,-1,,,,1
M20248065,l4tvlo2kg0,"Mediated JOLs recog_MSU",1,21,2023-03-17T05:27:35+00:00,0.93283081054688,1,versionA_stim.csv,ReadVersion.csv,Read,Read1,CEILING,CARPET,Study1,M,15,17,Study,User,-,,Study/JOL,"Study Phase",,717,,,-1,-1,,,,1
M20248065,l4tvlo2kg0,"Mediated JOLs recog_MSU",1,22,2023-03-17T05:27:36+00:00,1.0186030864716,1,versionA_stim.csv,ReadVersion.csv,Read,Read1,WORD,SENTENCE,Study1,F,27,21,Study,User,-,,Study/JOL,"Study Phase",,744,,,-1,-1,,,,1
M20248065,l4tvlo2kg0,"Mediated JOLs recog_MSU",1,23,2023-03-17T05:27:37+00:00,0.9593870639801,1,versionA_stim.csv,ReadVersion.csv,Read,Read1,CIRCLE,DANCE,Study1,M,13,41,Study,User,-,,Study/JOL,"Study Phase",,719,,,-1,-1,,,,1
M20248065,l4tvlo2kg0,"Mediated JOLs recog_MSU",1,24,2023-03-17T05:27:42+00:00,5.1852428913116,1,versionA_stim.csv,ReadVersion.csv,Read,Read1,STRETCH,CLOTH,Study1,U,37,24,Study,User,-,,Study/JOL,"Study Phase",,4710,,,-1,-1,,,,1
M20248065,l4tvlo2kg0,"Mediated JOLs recog_MSU",1,25,2023-03-17T05:27:43+00:00,1.1504330635071,1,versionA_stim.csv,ReadVersion.csv,Read,Read1,CAKE,HAND,Study1,U,49,11,Study,User,-,,Study/JOL,"Study Phase",,886,,,-1,-1,,,,1
M20248065,l4tvlo2kg0,"Mediated JOLs recog_MSU",1,26,2023-03-17T05:27:44+00:00,1.0059900283813,1,versionA_stim.csv,ReadVersion.csv,Read,Read1,LITTER,TRASH,Study1,F,21,25,Study,User,-,,Study/JOL,"Study Phase",,765,,,-1,-1,,,,1
M20248065,l4tvlo2kg0,"Mediated JOLs recog_MSU",1,27,2023-03-17T05:27:45+00:00,0.92305397987366,1,versionA_stim.csv,ReadVersion.csv,Read,Read1,SHELL,SHAKE,Study1,U,43,35,Study,User,-,,Study/JOL,"Study Phase",,673,,,-1,-1,,,,1
M20248065,l4tvlo2kg0,"Mediated JOLs recog_MSU",1,28,2023-03-17T05:27:46+00:00,0.96783590316772,1,versionA_stim.csv,ReadVersion.csv,Read,Read1,HYGIENE,CLEAN,Study1,F,28,38,Study,User,-,,Study/JOL,"Study Phase",,684,,,-1,-1,,,,1
M20248065,l4tvlo2kg0,"Mediated JOLs recog_MSU",1,29,2023-03-17T05:27:47+00:00,0.98172903060913,1,versionA_stim.csv,ReadVersion.csv,Read,Read1,LION,STRIPES,Study1,M,6,46,Study,User,-,,Study/JOL,"Study Phase",,725,,,-1,-1,,,,1
M20248065,l4tvlo2kg0,"Mediated JOLs recog_MSU",1,30,2023-03-17T05:27:48+00:00,0.89754796028137,1,versionA_stim.csv,ReadVersion.csv,Read,Read1,MIRROR,MAROON,Study1,U,36,47,Study,User,-,,Study/JOL,"Study Phase",,663,,,-1,-1,,,,1
M20248065,l4tvlo2kg0,"Mediated JOLs recog_MSU",1,31,2023-03-17T05:27:50+00:00,1.5295791625977,1,versionA_stim.csv,ReadVersion.csv,Read,Read1,MULE,DONKEY,Study1,F,24,32,Study,User,-,,Study/JOL,"Study Phase",,1320,,,-1,-1,,,,1
M20248065,l4tvlo2kg0,"Mediated JOLs recog_MSU",1,32,2023-03-17T05:27:50+00:00,0.88323998451233,1,versionA_stim.csv,ReadVersion.csv,Read,Read1,MEAT,KEYS,Study1,U,41,28,Study,User,-,,Study/JOL,"Study Phase",,607,,,-1,-1,,,,1
M20248065,l4tvlo2kg0,"Mediated JOLs recog_MSU",1,33,2023-03-17T05:27:51+00:00,0.78212404251099,1,versionA_stim.csv,ReadVersion.csv,Read,Read1,CRACKLE,ELECTION,Study1,U,39,27,Study,User,-,,Study/JOL,"Study Phase",,509,,,-1,-1,,,,1
M20248065,l4tvlo2kg0,"Mediated JOLs recog_MSU",1,34,2023-03-17T05:27:52+00:00,0.99725580215454,1,versionA_stim.csv,ReadVersion.csv,Read,Read1,KEYS,ROD,Study1,U,45,23,Study,User,-,,Study/JOL,"Study Phase",,750,,,-1,-1,,,,1
M20248065,l4tvlo2kg0,"Mediated JOLs recog_MSU",1,35,2023-03-17T05:27:53+00:00,1.069550037384,1,versionA_stim.csv,ReadVersion.csv,Read,Read1,SWAN,BIRD,Study1,F,26,48,Study,User,-,,Study/JOL,"Study Phase",,840,,,-1,-1,,,,1
M20248065,l4tvlo2kg0,"Mediated JOLs recog_MSU",1,36,2023-03-17T05:27:54+00:00,0.9828360080719,1,versionA_stim.csv,ReadVersion.csv,Read,Read1,CRY,BOTTLE,Study1,M,16,8,Study,User,-,,Study/JOL,"Study Phase",,757,,,-1,-1,,,,1
M20248065,l4tvlo2kg0,"Mediated JOLs recog_MSU",1,37,2023-03-17T05:27:55+00:00,0.95054507255554,1,versionA_stim.csv,ReadVersion.csv,Read,Read1,HARD,COTTON,Study1,M,20,15,Study,User,-,,Study/JOL,"Study Phase",,694,,,-1,-1,,,,1
M20248065,l4tvlo2kg0,"Mediated JOLs recog_MSU",1,38,2023-03-17T05:27:58+00:00,2.7877259254456,1,versionA_stim.csv,ReadVersion.csv,Read,Read1,AFFECTION,LOVE,Study1,F,31,9,Study,User,-,,Study/JOL,"Study Phase",,2540,,,-1,-1,,,,1
M20248065,l4tvlo2kg0,"Mediated JOLs recog_MSU",1,39,2023-03-17T05:27:59+00:00,1.4040961265564,1,versionA_stim.csv,ReadVersion.csv,Read,Read1,TREE,SYRUP,Study1,M,11,19,Study,User,-,,Study/JOL,"Study Phase",,1156,,,-1,-1,,,,1
M20248065,l4tvlo2kg0,"Mediated JOLs recog_MSU",1,40,2023-03-17T05:28:02+00:00,3.0591669082642,1,versionA_stim.csv,ReadVersion.csv,Read,Read1,TOOTH,HAIR,Study1,M,19,43,Study,User,-,,Study/JOL,"Study Phase",,2772,,,-1,-1,,,,1
M20248065,l4tvlo2kg0,"Mediated JOLs recog_MSU",1,41,2023-03-17T05:28:04+00:00,1.4616549015045,1,versionA_stim.csv,ReadVersion.csv,Read,Read1,CREDIT,CARD,Study1,F,33,40,Study,User,-,,Study/JOL,"Study Phase",,1158,,,-1,-1,,,,1
M20248065,l4tvlo2kg0,"Mediated JOLs recog_MSU",1,42,2023-03-17T05:28:05+00:00,1.4954872131348,1,versionA_stim.csv,ReadVersion.csv,Read,Read1,GIVE,STEAK,Study1,U,38,10,Study,User,-,,Study/JOL,"Study Phase",,1146,,,-1,-1,,,,1
M20248065,l4tvlo2kg0,"Mediated JOLs recog_MSU",1,43,2023-03-17T05:28:08+00:00,2.533942937851,1,versionA_stim.csv,ReadVersion.csv,Read,Read1,NAP,SLEEP,Study1,F,29,22,Study,User,-,,Study/JOL,"Study Phase",,2320,,,-1,-1,,,,1
M20248065,l4tvlo2kg0,"Mediated JOLs recog_MSU",1,44,2023-03-17T05:28:09+00:00,1.043016910553,1,versionA_stim.csv,ReadVersion.csv,Read,Read1,BEACH,BOX,Study1,M,7,16,Study,User,-,,Study/JOL,"Study Phase",,702,,,-1,-1,,,,1
M20248065,l4tvlo2kg0,"Mediated JOLs recog_MSU",1,45,2023-03-17T05:28:10+00:00,1.2075591087341,1,versionA_stim.csv,ReadVersion.csv,Read,Read1,BAT,BOUNCE,Study1,M,12,36,Study,User,-,,Study/JOL,"Study Phase",,974,,,-1,-1,,,,1
M20248065,l4tvlo2kg0,"Mediated JOLs recog_MSU",1,46,2023-03-17T05:28:11+00:00,1.0364048480988,1,versionA_stim.csv,ReadVersion.csv,Read,Read1,VEHICLE,CHARM,Study1,U,40,42,Study,User,-,,Study/JOL,"Study Phase",,785,,,-1,-1,,,,1
M20248065,l4tvlo2kg0,"Mediated JOLs recog_MSU",1,47,2023-03-17T05:28:12+00:00,1.0198590755463,1,versionA_stim.csv,ReadVersion.csv,Read,Read1,SIGN,TICK,Study1,U,47,29,Study,User,-,,Study/JOL,"Study Phase",,749,,,-1,-1,,,,1
M20248065,l4tvlo2kg0,"Mediated JOLs recog_MSU",1,48,2023-03-17T05:28:13+00:00,0.85729312896729,1,versionA_stim.csv,ReadVersion.csv,Read,Read1,FUZZY,BANG,Study1,U,50,20,Study,User,-,,Study/JOL,"Study Phase",,581,,,-1,-1,,,,1
M20248065,l4tvlo2kg0,"Mediated JOLs recog_MSU",1,49,2023-03-17T05:28:14+00:00,0.77024698257446,1,versionA_stim.csv,ReadVersion.csv,Read,Read1,LISTEN,FICTION,Study1,U,44,34,Study,User,-,,Study/JOL,"Study Phase",,497,,,-1,-1,,,,1
M20248065,l4tvlo2kg0,"Mediated JOLs recog_MSU",1,50,2023-03-17T05:28:15+00:00,0.8137218952179,1,versionA_stim.csv,ReadVersion.csv,Read,Read1,WEDDING,FINGER,Study1,M,17,50,Study,User,-,,Study/JOL,"Study Phase",,585,,,-1,-1,,,,1
M20248065,l4tvlo2kg0,"Mediated JOLs recog_MSU",1,51,2023-03-17T05:28:17+00:00,2.5019969940186,1,versionA_stim.csv,ReadVersion.csv,Read,Read1,SOON,BELT,Study1,U,46,44,Study,User,-,,Study/JOL,"Study Phase",,1067,,,-1,-1,,,,1
M20248065,l4tvlo2kg0,"Mediated JOLs recog_MSU",1,52,2023-03-17T05:28:18+00:00,1.1069269180298,1,versionA_stim.csv,ReadVersion.csv,Read,Read1,ROOT,PLANT,Study1,F,25,18,Study,User,-,,Study/JOL,"Study Phase",,869,,,-1,-1,,,,1
M20248065,l4tvlo2kg0,"Mediated JOLs recog_MSU",1,53,2023-03-17T05:28:19+00:00,1.1490550041199,1,versionA_stim.csv,ReadVersion.csv,Read,Read1,MALT,CHOCOLATE,BUFFER2,Buffer,53,56,Study,User,-,,Study/JOL,BUFFER2,,898,,,-1,-1,,,,1
M20248065,l4tvlo2kg0,"Mediated JOLs recog_MSU",1,54,2023-03-17T05:28:20+00:00,1.0487110614777,1,versionA_stim.csv,ReadVersion.csv,Read,Read1,SHERRIF,POLICE,BUFFER2,Buffer,52,54,Study,User,-,,Study/JOL,BUFFER2,,787,,,-1,-1,,,,1
M20248065,l4tvlo2kg0,"Mediated JOLs recog_MSU",1,55,2023-03-17T05:28:21+00:00,0.98916292190552,1,versionA_stim.csv,ReadVersion.csv,Read,Read1,THING,STUFF,BUFFER2,Buffer,55,52,Study,User,-,,Study/JOL,BUFFER2,,739,,,-1,-1,,,,1
M20248065,l4tvlo2kg0,"Mediated JOLs recog_MSU",1,56,2023-03-17T05:28:23+00:00,1.8813781738281,1,versionA_stim.csv,ReadVersion.csv,Read,Read1,MOON,SPACE,BUFFER2,Buffer,54,53,Study,User,-,,Study/JOL,BUFFER2,,1667,,,-1,-1,,,,1
M20248065,l4tvlo2kg0,"Mediated JOLs recog_MSU",1,57,2023-03-17T05:28:24+00:00,1.0506248474121,1,versionA_stim.csv,ReadVersion.csv,Read,Read1,GEESE,GOOSE,BUFFER2,Buffer,51,55,Study,User,-,,Study/JOL,BUFFER2,,824,,,-1,-1,,,,1
M20248065,l4tvlo2kg0,"Mediated JOLs recog_MSU",1,58,2023-03-17T05:28:27+00:00,2.7711820602417,1,versionA_stim.csv,ReadVersion.csv,Read,Read1,,,,,,0,Instruct,User,-,"You have completed this section. Please press Enter.",Filler_Instruction,Instruct2,,2472,,,-1,-1,,,,1
M20248065,l4tvlo2kg0,"Mediated JOLs recog_MSU",1,59,2023-03-17T05:30:28+00:00,120.45356893539,1,versionA_stim.csv,ReadVersion.csv,Read,Read1,,,,,,0,FreeRecall,120,120,"Please list the 50 US states in alphabetical order. The task will automatically advance to the next screen after two minutes.",,Filler1,,120003,"Alabama Alaska Chicago Texas",0,7718,74578,0,0,,1
M20248065,l4tvlo2kg0,"Mediated JOLs recog_MSU",1,60,2023-03-17T05:30:40+00:00,12.737629175186,1,versionA_stim.csv,ReadVersion.csv,Read,Read1,,,,,,0,Instruct,User,10,"Your memory will now be tested. You will be presented with a series of words that may or may not have been previously presented alongside another word. If the word on the screen was previously studied, please select YES. If the word was not studied, select NO. PLEASE DO NOT SKIP ITEMS! Click next when you are ready to begin.",,Instruc7982154d,,11914,,,-1,-1,,,,1
M20248065,l4tvlo2kg0,"Mediated JOLs recog_MSU",1,61,2023-03-17T05:30:46+00:00,6.1245019435883,1,versionA_stim.csv,ReadVersion.csv,Read,Read1,,LOVE,RECOG,Presented,127,99,Likert,User,1,"Was this item previously studied?",CONTROL,Recog,1::2,5660,YES,28.571428571429,-1,-1,0,0,,1
M20248065,l4tvlo2kg0,"Mediated JOLs recog_MSU",1,62,2023-03-17T05:30:50+00:00,3.4690160751343,1,versionA_stim.csv,ReadVersion.csv,Read,Read1,,CARPET,RECOG,Presented,111,74,Likert,User,1,"Was this item previously studied?",CONTROL,Recog,1::2,3196,YES,22.222222222222,-1,-1,0,0,,1
M20248065,l4tvlo2kg0,"Mediated JOLs recog_MSU",1,63,2023-03-17T05:30:54+00:00,4.0531158447266,1,versionA_stim.csv,ReadVersion.csv,Read,Read1,,ISLAND,RECOG,CONTROL,60,122,Likert,User,1,"Was this item previously studied?",PRESENTED,Recog,1::2,3805,NO,25,-1,-1,0,0,,1
M20248065,l4tvlo2kg0,"Mediated JOLs recog_MSU",1,64,2023-03-17T05:30:57+00:00,2.9033479690552,1,versionA_stim.csv,ReadVersion.csv,Read,Read1,,FIGHT,RECOG,CONTROL,82,91,Likert,User,1,"Was this item previously studied?",CONTROL,Recog,1::2,2663,NO,0,-1,-1,0,0,,1
M20248065,l4tvlo2kg0,"Mediated JOLs recog_MSU",1,65,2023-03-17T05:30:59+00:00,2.1838960647583,1,versionA_stim.csv,ReadVersion.csv,Read,Read1,,MAROON,RECOG,Presented,132,109,Likert,User,1,"Was this item previously studied?",PRESENTED,Recog,1::2,1973,YES,0,-1,-1,0,0,,1
M20248065,l4tvlo2kg0,"Mediated JOLs recog_MSU",1,66,2023-03-17T05:31:02+00:00,3.0085549354553,1,versionA_stim.csv,ReadVersion.csv,Read,Read1,,QUIET,RECOG,Presented,104,60,Likert,User,1,"Was this item previously studied?",CONTROL,Recog,1::2,2687,YES,25,-1,-1,0,0,,1
M20248065,l4tvlo2kg0,"Mediated JOLs recog_MSU",1,67,2023-03-17T05:31:05+00:00,3.4027941226959,1,versionA_stim.csv,ReadVersion.csv,Read,Read1,,BASEBALL,RECOG,CONTROL,80,96,Likert,User,1,"Was this item previously studied?",CONTROL,Recog,1::2,3142,NO,0,-1,-1,0,0,,1
M20248065,l4tvlo2kg0,"Mediated JOLs recog_MSU",1,68,2023-03-17T05:31:09+00:00,3.4445109367371,1,versionA_stim.csv,ReadVersion.csv,Read,Read1,,COW,RECOG,CONTROL,84,80,Likert,User,1,"Was this item previously studied?",CONTROL,Recog,1::2,3165,NO,40,-1,-1,0,0,,1
M20248065,l4tvlo2kg0,"Mediated JOLs recog_MSU",1,69,2023-03-17T05:31:12+00:00,3.3655090332031,1,versionA_stim.csv,ReadVersion.csv,Read,Read1,,BELT,RECOG,Presented,142,128,Likert,User,1,"Was this item previously studied?",PRESENTED,Recog,1::2,3087,YES,28.571428571429,-1,-1,0,0,,1
M20248065,l4tvlo2kg0,"Mediated JOLs recog_MSU",1,70,2023-03-17T05:31:15+00:00,2.6697809696198,1,versionA_stim.csv,ReadVersion.csv,Read,Read1,,PAPER,RECOG,CONTROL,78,105,Likert,User,1,"Was this item previously studied?",PRESENTED,Recog,1::2,2421,YES,25,-1,-1,0,0,,1
M20248065,l4tvlo2kg0,"Mediated JOLs recog_MSU",1,71,2023-03-17T05:31:18+00:00,2.876384973526,1,versionA_stim.csv,ReadVersion.csv,Read,Read1,,COTTON,RECOG,Presented,116,116,Likert,User,1,"Was this item previously studied?",PRESENTED,Recog,1::2,2618,NO,25,-1,-1,0,0,,1
M20248065,l4tvlo2kg0,"Mediated JOLs recog_MSU",1,72,2023-03-17T05:31:22+00:00,3.9256501197815,1,versionA_stim.csv,ReadVersion.csv,Read,Read1,,BANG,RECOG,Presented,146,103,Likert,User,1,"Was this item previously studied?",PRESENTED,Recog,1::2,3707,NO,33.333333333333,-1,-1,0,0,,1
M20248065,l4tvlo2kg0,"Mediated JOLs recog_MSU",1,73,2023-03-17T05:31:25+00:00,3.214292049408,1,versionA_stim.csv,ReadVersion.csv,Read,Read1,,SENTENCE,RECOG,Presented,123,79,Likert,User,1,"Was this item previously studied?",CONTROL,Recog,1::2,2955,NO,20,-1,-1,0,0,,1
M20248065,l4tvlo2kg0,"Mediated JOLs recog_MSU",1,74,2023-03-17T05:31:28+00:00,2.8295278549194,1,versionA_stim.csv,ReadVersion.csv,Read,Read1,,HAIR,RECOG,Presented,115,141,Likert,User,1,"Was this item previously studied?",PRESENTED,Recog,1::2,2487,YES,0,-1,-1,0,0,,1
M20248065,l4tvlo2kg0,"Mediated JOLs recog_MSU",1,75,2023-03-17T05:31:31+00:00,3.3552770614624,1,versionA_stim.csv,ReadVersion.csv,Read,Read1,,HORN,RECOG,CONTROL,94,59,Likert,User,1,"Was this item previously studied?",CONTROL,Recog,1::2,3140,YES,0,-1,-1,0,0,,1
M20248065,l4tvlo2kg0,"Mediated JOLs recog_MSU",1,76,2023-03-17T05:31:36+00:00,4.7702090740204,1,versionA_stim.csv,ReadVersion.csv,Read,Read1,,CAR,RECOG,CONTROL,88,142,Likert,User,1,"Was this item previously studied?",PRESENTED,Recog,1::2,4326,NO,0,-1,-1,0,0,,1
M20248065,l4tvlo2kg0,"Mediated JOLs recog_MSU",1,77,2023-03-17T05:31:42+00:00,5.5821928977966,1,versionA_stim.csv,ReadVersion.csv,Read,Read1,,FIRE,RECOG,CONTROL,77,101,Likert,User,1,"Was this item previously studied?",CONTROL,Recog,1::2,5130,NO,0,-1,-1,0,0,,1
M20248065,l4tvlo2kg0,"Mediated JOLs recog_MSU",1,78,2023-03-17T05:31:46+00:00,4.001256942749,1,versionA_stim.csv,ReadVersion.csv,Read,Read1,,RIDDLE,RECOG,CONTROL,91,130,Likert,User,1,"Was this item previously studied?",PRESENTED,Recog,1::2,3719,YES,22.222222222222,-1,-1,0,0,,1
M20248065,l4tvlo2kg0,"Mediated JOLs recog_MSU",1,79,2023-03-17T05:31:49+00:00,3.526064157486,1,versionA_stim.csv,ReadVersion.csv,Read,Read1,,CAVE,RECOG,CONTROL,66,120,Likert,User,1,"Was this item previously studied?",PRESENTED,Recog,1::2,3265,YES,28.571428571429,-1,-1,0,0,,1
M20248065,l4tvlo2kg0,"Mediated JOLs recog_MSU",1,80,2023-03-17T05:31:53+00:00,3.8024668693542,1,versionA_stim.csv,ReadVersion.csv,Read,Read1,,HIDE,RECOG,CONTROL,96,117,Likert,User,1,"Was this item previously studied?",PRESENTED,Recog,1::2,3501,NO,0,-1,-1,0,0,,1
M20248065,l4tvlo2kg0,"Mediated JOLs recog_MSU",1,81,2023-03-17T05:31:57+00:00,3.7096490859985,1,versionA_stim.csv,ReadVersion.csv,Read,Read1,,HAND,RECOG,Presented,145,88,Likert,User,1,"Was this item previously studied?",CONTROL,Recog,1::2,3435,NO,33.333333333333,-1,-1,0,0,,1
M20248065,l4tvlo2kg0,"Mediated JOLs recog_MSU",1,82,2023-03-17T05:32:04+00:00,7.7598798274994,1,versionA_stim.csv,ReadVersion.csv,Read,Read1,,STOP,RECOG,CONTROL,58,133,Likert,User,1,"Was this item previously studied?",PRESENTED,Recog,1::2,6455,YES,28.571428571429,-1,-1,0,0,,1
M20248065,l4tvlo2kg0,"Mediated JOLs recog_MSU",1,83,2023-03-17T05:32:07+00:00,3.0623531341553,1,versionA_stim.csv,ReadVersion.csv,Read,Read1,,STRIPES,RECOG,Presented,102,86,Likert,User,1,"Was this item previously studied?",CONTROL,Recog,1::2,2799,YES,40,-1,-1,0,0,,1
M20248065,l4tvlo2kg0,"Mediated JOLs recog_MSU",1,84,2023-03-17T05:32:10+00:00,2.4198200702667,1,versionA_stim.csv,ReadVersion.csv,Read,Read1,,FICTION,RECOG,Presented,140,57,Likert,User,1,"Was this item previously studied?",CONTROL,Recog,1::2,2167,NO,22.222222222222,-1,-1,0,0,,1
M20248065,l4tvlo2kg0,"Mediated JOLs recog_MSU",1,85,2023-03-17T05:32:13+00:00,3.2255668640137,1,versionA_stim.csv,ReadVersion.csv,Read,Read1,,ELECTION,RECOG,Presented,135,143,Likert,User,1,"Was this item previously studied?",PRESENTED,Recog,1::2,2887,NO,20,-1,-1,0,0,,1
M20248065,l4tvlo2kg0,"Mediated JOLs recog_MSU",1,86,2023-03-17T05:32:20+00:00,6.9081449508667,1,versionA_stim.csv,ReadVersion.csv,Read,Read1,,TOIL,RECOG,CONTROL,97,113,Likert,User,1,"Was this item previously studied?",PRESENTED,Recog,1::2,6466,NO,33.333333333333,-1,-1,0,0,,1
M20248065,l4tvlo2kg0,"Mediated JOLs recog_MSU",1,87,2023-03-17T05:32:23+00:00,2.8488020896912,1,versionA_stim.csv,ReadVersion.csv,Read,Read1,,CARD,RECOG,Presented,129,84,Likert,User,1,"Was this item previously studied?",CONTROL,Recog,1::2,2490,NO,0,-1,-1,0,0,,1
M20248065,l4tvlo2kg0,"Mediated JOLs recog_MSU",1,88,2023-03-17T05:32:25+00:00,2.346018075943,1,versionA_stim.csv,ReadVersion.csv,Read,Read1,,BUG,RECOG,CONTROL,85,146,Likert,User,1,"Was this item previously studied?",PRESENTED,Recog,1::2,2140,NO,0,-1,-1,0,0,,1
M20248065,l4tvlo2kg0,"Mediated JOLs recog_MSU",1,89,2023-03-17T05:32:27+00:00,2.2753620147705,1,versionA_stim.csv,ReadVersion.csv,Read,Read1,,TRASH,RECOG,Presented,117,62,Likert,User,1,"Was this item previously studied?",CONTROL,Recog,1::2,1992,YES,25,-1,-1,0,0,,1
M20248065,l4tvlo2kg0,"Mediated JOLs recog_MSU",1,90,2023-03-17T05:32:31+00:00,3.5561509132385,1,versionA_stim.csv,ReadVersion.csv,Read,Read1,,BOX,RECOG,Presented,103,131,Likert,User,1,"Was this item previously studied?",PRESENTED,Recog,1::2,3305,YES,0,-1,-1,0,0,,1
M20248065,l4tvlo2kg0,"Mediated JOLs recog_MSU",1,91,2023-03-17T05:32:34+00:00,2.9913840293884,1,versionA_stim.csv,ReadVersion.csv,Read,Read1,,SLEEP,RECOG,Presented,125,98,Likert,User,1,"Was this item previously studied?",CONTROL,Recog,1::2,2748,YES,25,-1,-1,0,0,,1
M20248065,l4tvlo2kg0,"Mediated JOLs recog_MSU",1,92,2023-03-17T05:32:37+00:00,2.8345670700073,1,versionA_stim.csv,ReadVersion.csv,Read,Read1,,BOTTLE,RECOG,Presented,112,95,Likert,User,1,"Was this item previously studied?",CONTROL,Recog,1::2,2630,NO,25,-1,-1,0,0,,1
M20248065,l4tvlo2kg0,"Mediated JOLs recog_MSU",1,93,2023-03-17T05:32:41+00:00,3.9059948921204,1,versionA_stim.csv,ReadVersion.csv,Read,Read1,,LAWYER,RECOG,CONTROL,62,123,Likert,User,1,"Was this item previously studied?",PRESENTED,Recog,1::2,3690,NO,0,-1,-1,0,0,,1
M20248065,l4tvlo2kg0,"Mediated JOLs recog_MSU",1,94,2023-03-17T05:32:43+00:00,2.6833961009979,1,versionA_stim.csv,ReadVersion.csv,Read,Read1,,WATER,RECOG,CONTROL,86,111,Likert,User,1,"Was this item previously studied?",PRESENTED,Recog,1::2,2427,YES,25,-1,-1,0,0,,1
M20248065,l4tvlo2kg0,"Mediated JOLs recog_MSU",1,95,2023-03-17T05:32:47+00:00,3.3134179115295,1,versionA_stim.csv,ReadVersion.csv,Read,Read1,,MUSCLE,RECOG,CONTROL,71,73,Likert,User,1,"Was this item previously studied?",CONTROL,Recog,1::2,3046,NO,0,-1,-1,0,0,,1
M20248065,l4tvlo2kg0,"Mediated JOLs recog_MSU",1,96,2023-03-17T05:32:50+00:00,2.8603630065918,1,versionA_stim.csv,ReadVersion.csv,Read,Read1,,CUT,RECOG,CONTROL,73,90,Likert,User,1,"Was this item previously studied?",CONTROL,Recog,1::2,2616,YES,0,-1,-1,0,0,,1
M20248065,l4tvlo2kg0,"Mediated JOLs recog_MSU",1,97,2023-03-17T05:32:52+00:00,2.4028899669647,1,versionA_stim.csv,ReadVersion.csv,Read,Read1,,THIGH,RECOG,CONTROL,68,139,Likert,User,1,"Was this item previously studied?",PRESENTED,Recog,1::2,2193,YES,0,-1,-1,0,0,,1
M20248065,l4tvlo2kg0,"Mediated JOLs recog_MSU",1,98,2023-03-17T05:32:54+00:00,2.462249994278,1,versionA_stim.csv,ReadVersion.csv,Read,Read1,,DONKEY,RECOG,Presented,120,112,Likert,User,1,"Was this item previously studied?",PRESENTED,Recog,1::2,2207,YES,22.222222222222,-1,-1,0,0,,1
M20248065,l4tvlo2kg0,"Mediated JOLs recog_MSU",1,99,2023-03-17T05:32:57+00:00,2.868145942688,1,versionA_stim.csv,ReadVersion.csv,Read,Read1,,PHONE,RECOG,Presented,138,64,Likert,User,1,"Was this item previously studied?",CONTROL,Recog,1::2,2621,YES,25,-1,-1,0,0,,1
M20248065,l4tvlo2kg0,"Mediated JOLs recog_MSU",1,100,2023-03-17T05:33:00+00:00,2.8269500732422,1,versionA_stim.csv,ReadVersion.csv,Read,Read1,,HAMMER,RECOG,CONTROL,74,121,Likert,User,1,"Was this item previously studied?",PRESENTED,Recog,1::2,2619,NO,0,-1,-1,0,0,,1
M20248065,l4tvlo2kg0,"Mediated JOLs recog_MSU",1,101,2023-03-17T05:33:05+00:00,4.7189080715179,1,versionA_stim.csv,ReadVersion.csv,Read,Read1,,OUNCE,RECOG,CONTROL,98,66,Likert,User,1,"Was this item previously studied?",CONTROL,Recog,1::2,4328,NO,28.571428571429,-1,-1,0,0,,1
M20248065,l4tvlo2kg0,"Mediated JOLs recog_MSU",1,102,2023-03-17T05:33:08+00:00,2.9818480014801,1,versionA_stim.csv,ReadVersion.csv,Read,Read1,,SMELL,RECOG,CONTROL,61,107,Likert,User,1,"Was this item previously studied?",PRESENTED,Recog,1::2,2720,NO,0,-1,-1,0,0,,1
M20248065,l4tvlo2kg0,"Mediated JOLs recog_MSU",1,103,2023-03-17T05:33:12+00:00,4.0996189117432,1,versionA_stim.csv,ReadVersion.csv,Read,Read1,,TICK,RECOG,Presented,143,138,Likert,User,1,"Was this item previously studied?",PRESENTED,Recog,1::2,3851,YES,0,-1,-1,0,0,,1
M20248065,l4tvlo2kg0,"Mediated JOLs recog_MSU",1,104,2023-03-17T05:33:17+00:00,5.0153880119324,1,versionA_stim.csv,ReadVersion.csv,Read,Read1,,COLLAR,RECOG,CONTROL,59,114,Likert,User,1,"Was this item previously studied?",PRESENTED,Recog,1::2,4545,NO,25,-1,-1,0,0,,1
M20248065,l4tvlo2kg0,"Mediated JOLs recog_MSU",1,105,2023-03-17T05:33:20+00:00,2.8708419799805,1,versionA_stim.csv,ReadVersion.csv,Read,Read1,,BIRD,RECOG,Presented,122,110,Likert,User,1,"Was this item previously studied?",PRESENTED,Recog,1::2,2613,NO,0,-1,-1,0,0,,1
M20248065,l4tvlo2kg0,"Mediated JOLs recog_MSU",1,106,2023-03-17T05:33:23+00:00,3.0137341022491,1,versionA_stim.csv,ReadVersion.csv,Read,Read1,,PLANT,RECOG,CONTROL,72,108,Likert,User,1,"Was this item previously studied?",PRESENTED,Recog,1::2,2620,YES,0,-1,-1,0,0,,1
M20248065,l4tvlo2kg0,"Mediated JOLs recog_MSU",1,107,2023-03-17T05:33:32+00:00,9.0903840065002,1,versionA_stim.csv,ReadVersion.csv,Read,Read1,,CHILDREN,RECOG,CONTROL,100,144,Likert,User,1,"Was this item previously studied?",PRESENTED,Recog,1::2,8601,NO,20,-1,-1,0,0,,1
M20248065,l4tvlo2kg0,"Mediated JOLs recog_MSU",1,108,2023-03-17T05:33:34+00:00,2.434700012207,1,versionA_stim.csv,ReadVersion.csv,Read,Read1,,PLANT,RECOG,Presented,121,78,Likert,User,1,"Was this item previously studied?",CONTROL,Recog,1::2,2171,NO,28.571428571429,-1,-1,0,0,,1
M20248065,l4tvlo2kg0,"Mediated JOLs recog_MSU",1,109,2023-03-17T05:33:37+00:00,2.8343498706818,1,versionA_stim.csv,ReadVersion.csv,Read,Read1,,DRINK,RECOG,CONTROL,63,119,Likert,User,1,"Was this item previously studied?",PRESENTED,Recog,1::2,2571,YES,0,-1,-1,0,0,,1
M20248065,l4tvlo2kg0,"Mediated JOLs recog_MSU",1,110,2023-03-17T05:33:43+00:00,5.6089999675751,1,versionA_stim.csv,ReadVersion.csv,Read,Read1,,PIE,RECOG,Presented,105,137,Likert,User,1,"Was this item previously studied?",PRESENTED,Recog,1::2,5142,YES,33.333333333333,-1,-1,0,0,,1
M20248065,l4tvlo2kg0,"Mediated JOLs recog_MSU",1,111,2023-03-17T05:33:46+00:00,3.4714250564575,1,versionA_stim.csv,ReadVersion.csv,Read,Read1,,MORNING,RECOG,Presented,144,85,Likert,User,1,"Was this item previously studied?",CONTROL,Recog,1::2,3181,NO,22.222222222222,-1,-1,0,0,,1
M20248065,l4tvlo2kg0,"Mediated JOLs recog_MSU",1,112,2023-03-17T05:33:50+00:00,3.249655008316,1,versionA_stim.csv,ReadVersion.csv,Read,Read1,,DANCE,RECOG,Presented,109,61,Likert,User,1,"Was this item previously studied?",CONTROL,Recog,1::2,2981,YES,25,-1,-1,0,0,,1
M20248065,l4tvlo2kg0,"Mediated JOLs recog_MSU",1,113,2023-03-17T05:33:52+00:00,2.5461070537567,1,versionA_stim.csv,ReadVersion.csv,Read,Read1,,CHARM,RECOG,Presented,136,63,Likert,User,1,"Was this item previously studied?",CONTROL,Recog,1::2,2298,NO,0,-1,-1,0,0,,1
M20248065,l4tvlo2kg0,"Mediated JOLs recog_MSU",1,114,2023-03-17T05:33:58+00:00,5.8285908699036,1,versionA_stim.csv,ReadVersion.csv,Read,Read1,,MONEY,RECOG,Presented,118,65,Likert,User,1,"Was this item previously studied?",CONTROL,Recog,1::2,5323,NO,28.571428571429,-1,-1,0,0,,1
M20248065,l4tvlo2kg0,"Mediated JOLs recog_MSU",1,115,2023-03-17T05:34:00+00:00,2.3918809890747,1,versionA_stim.csv,ReadVersion.csv,Read,Read1,,SNOW,RECOG,CONTROL,57,136,Likert,User,1,"Was this item previously studied?",PRESENTED,Recog,1::2,2108,YES,28.571428571429,-1,-1,0,0,,1
M20248065,l4tvlo2kg0,"Mediated JOLs recog_MSU",1,116,2023-03-17T05:34:03+00:00,2.7732150554657,1,versionA_stim.csv,ReadVersion.csv,Read,Read1,,SYRUP,RECOG,Presented,107,100,Likert,User,1,"Was this item previously studied?",CONTROL,Recog,1::2,2504,NO,0,-1,-1,0,0,,1
M20248065,l4tvlo2kg0,"Mediated JOLs recog_MSU",1,117,2023-03-17T05:34:07+00:00,3.7060899734497,1,versionA_stim.csv,ReadVersion.csv,Read,Read1,,CLEAN,RECOG,Presented,124,68,Likert,User,1,"Was this item previously studied?",CONTROL,Recog,1::2,3454,YES,25,-1,-1,0,0,,1
M20248065,l4tvlo2kg0,"Mediated JOLs recog_MSU",1,118,2023-03-17T05:34:11+00:00,4.2526621818542,1,versionA_stim.csv,ReadVersion.csv,Read,Read1,,STEAK,RECOG,Presented,134,89,Likert,User,1,"Was this item previously studied?",CONTROL,Recog,1::2,3618,NO,0,-1,-1,0,0,,1
M20248065,l4tvlo2kg0,"Mediated JOLs recog_MSU",1,119,2023-03-17T05:34:14+00:00,2.7271189689636,1,versionA_stim.csv,ReadVersion.csv,Read,Read1,,KEYS,RECOG,Presented,137,134,Likert,User,1,"Was this item previously studied?",PRESENTED,Recog,1::2,2388,NO,0,-1,-1,0,0,,1
M20248065,l4tvlo2kg0,"Mediated JOLs recog_MSU",1,120,2023-03-17T05:34:16+00:00,2.4233000278473,1,versionA_stim.csv,ReadVersion.csv,Read,Read1,,ACCIDENT,RECOG,CONTROL,90,126,Likert,User,1,"Was this item previously studied?",PRESENTED,Recog,1::2,2105,NO,20,-1,-1,0,0,,1
M20248065,l4tvlo2kg0,"Mediated JOLs recog_MSU",1,121,2023-03-17T05:34:20+00:00,3.928701877594,1,versionA_stim.csv,ReadVersion.csv,Read,Read1,,SHAKE,RECOG,Presented,139,83,Likert,User,1,"Was this item previously studied?",CONTROL,Recog,1::2,3669,YES,25,-1,-1,0,0,,1
M20248065,l4tvlo2kg0,"Mediated JOLs recog_MSU",1,122,2023-03-17T05:34:23+00:00,2.5471711158752,1,versionA_stim.csv,ReadVersion.csv,Read,Read1,,DRINK,RECOG,Presented,128,115,Likert,User,1,"Was this item previously studied?",PRESENTED,Recog,1::2,2280,YES,0,-1,-1,0,0,,1
M20248065,l4tvlo2kg0,"Mediated JOLs recog_MSU",1,123,2023-03-17T05:34:26+00:00,2.9410398006439,1,versionA_stim.csv,ReadVersion.csv,Read,Read1,,COLD,RECOG,CONTROL,83,58,Likert,User,1,"Was this item previously studied?",CONTROL,Recog,1::2,2617,NO,33.333333333333,-1,-1,0,0,,1
M20248065,l4tvlo2kg0,"Mediated JOLs recog_MSU",1,124,2023-03-17T05:34:29+00:00,3.352432012558,1,versionA_stim.csv,ReadVersion.csv,Read,Read1,,SACK,RECOG,CONTROL,93,125,Likert,User,1,"Was this item previously studied?",PRESENTED,Recog,1::2,3134,YES,28.571428571429,-1,-1,0,0,,1
M20248065,l4tvlo2kg0,"Mediated JOLs recog_MSU",1,125,2023-03-17T05:34:32+00:00,2.6621999740601,1,versionA_stim.csv,ReadVersion.csv,Read,Read1,,WHEEL,RECOG,Presented,110,104,Likert,User,1,"Was this item previously studied?",PRESENTED,Recog,1::2,2390,YES,25,-1,-1,0,0,,1
M20248065,l4tvlo2kg0,"Mediated JOLs recog_MSU",1,126,2023-03-17T05:34:34+00:00,2.9022190570831,1,versionA_stim.csv,ReadVersion.csv,Read,Read1,,BRONZE,RECOG,CONTROL,99,76,Likert,User,1,"Was this item previously studied?",CONTROL,Recog,1::2,2619,NO,25,-1,-1,0,0,,1
M20248065,l4tvlo2kg0,"Mediated JOLs recog_MSU",1,127,2023-03-17T05:34:39+00:00,4.4963519573212,1,versionA_stim.csv,ReadVersion.csv,Read,Read1,,DONKEY,RECOG,Presented,126,70,Likert,User,1,"Was this item previously studied?",CONTROL,Recog,1::2,4055,YES,22.222222222222,-1,-1,0,0,,1
M20248065,l4tvlo2kg0,"Mediated JOLs recog_MSU",1,128,2023-03-17T05:34:45+00:00,5.7726881504059,1,versionA_stim.csv,ReadVersion.csv,Read,Read1,,HEAD,RECOG,Presented,119,72,Likert,User,1,"Was this item previously studied?",CONTROL,Recog,1::2,5289,NO,0,-1,-1,0,0,,1
M20248065,l4tvlo2kg0,"Mediated JOLs recog_MSU",1,129,2023-03-17T05:34:48+00:00,2.8529388904572,1,versionA_stim.csv,ReadVersion.csv,Read,Read1,,CLUTTER,RECOG,CONTROL,92,140,Likert,User,1,"Was this item previously studied?",PRESENTED,Recog,1::2,2500,NO,0,-1,-1,0,0,,1
M20248065,l4tvlo2kg0,"Mediated JOLs recog_MSU",1,130,2023-03-17T05:34:52+00:00,4.3519101142883,1,versionA_stim.csv,ReadVersion.csv,Read,Read1,,ROD,RECOG,Presented,141,77,Likert,User,1,"Was this item previously studied?",CONTROL,Recog,1::2,2970,YES,0,-1,-1,0,0,,1
M20248065,l4tvlo2kg0,"Mediated JOLs recog_MSU",1,131,2023-03-17T05:34:56+00:00,3.5427889823914,1,versionA_stim.csv,ReadVersion.csv,Read,Read1,,BASKET,RECOG,CONTROL,67,94,Likert,User,1,"Was this item previously studied?",CONTROL,Recog,1::2,3272,YES,22.222222222222,-1,-1,0,0,,1
M20248065,l4tvlo2kg0,"Mediated JOLs recog_MSU",1,132,2023-03-17T05:34:59+00:00,3.8275420665741,1,versionA_stim.csv,ReadVersion.csv,Read,Read1,,BOUNCE,RECOG,Presented,108,69,Likert,User,1,"Was this item previously studied?",CONTROL,Recog,1::2,3538,YES,22.222222222222,-1,-1,0,0,,1
M20248065,l4tvlo2kg0,"Mediated JOLs recog_MSU",1,133,2023-03-17T05:35:03+00:00,3.4108808040619,1,versionA_stim.csv,ReadVersion.csv,Read,Read1,,BUSINESS,RECOG,CONTROL,95,97,Likert,User,1,"Was this item previously studied?",CONTROL,Recog,1::2,3152,NO,20,-1,-1,0,0,,1
M20248065,l4tvlo2kg0,"Mediated JOLs recog_MSU",1,134,2023-03-17T05:35:05+00:00,2.6627631187439,1,versionA_stim.csv,ReadVersion.csv,Read,Read1,,SILK,RECOG,Presented,106,82,Likert,User,1,"Was this item previously studied?",CONTROL,Recog,1::2,2262,YES,28.571428571429,-1,-1,0,0,,1
M20248065,l4tvlo2kg0,"Mediated JOLs recog_MSU",1,135,2023-03-17T05:35:07+00:00,2.0890500545502,1,versionA_stim.csv,ReadVersion.csv,Read,Read1,,DARK,RECOG,Presented,114,124,Likert,User,1,"Was this item previously studied?",PRESENTED,Recog,1::2,1989,YES,0,-1,-1,0,0,,1
M20248065,l4tvlo2kg0,"Mediated JOLs recog_MSU",1,136,2023-03-17T05:35:10+00:00,2.4619719982147,1,versionA_stim.csv,ReadVersion.csv,Read,Read1,,RED,RECOG,CONTROL,76,71,Likert,User,1,"Was this item previously studied?",CONTROL,Recog,1::2,2185,YES,33.333333333333,-1,-1,0,0,,1
M20248065,l4tvlo2kg0,"Mediated JOLs recog_MSU",1,137,2023-03-17T05:35:13+00:00,2.9669849872589,1,versionA_stim.csv,ReadVersion.csv,Read,Read1,,PEAK,RECOG,CONTROL,69,145,Likert,User,1,"Was this item previously studied?",PRESENTED,Recog,1::2,2716,NO,0,-1,-1,0,0,,1
M20248065,l4tvlo2kg0,"Mediated JOLs recog_MSU",1,138,2023-03-17T05:35:15+00:00,2.3339560031891,1,versionA_stim.csv,ReadVersion.csv,Read,Read1,,STING,RECOG,CONTROL,81,118,Likert,User,1,"Was this item previously studied?",PRESENTED,Recog,1::2,2089,NO,28.571428571429,-1,-1,0,0,,1
M20248065,l4tvlo2kg0,"Mediated JOLs recog_MSU",1,139,2023-03-17T05:35:18+00:00,2.4470529556274,1,versionA_stim.csv,ReadVersion.csv,Read,Read1,,CLOTHES,RECOG,CONTROL,75,132,Likert,User,1,"Was this item previously studied?",PRESENTED,Recog,1::2,2163,NO,22.222222222222,-1,-1,0,0,,1
M20248065,l4tvlo2kg0,"Mediated JOLs recog_MSU",1,140,2023-03-17T05:35:20+00:00,2.2717759609222,1,versionA_stim.csv,ReadVersion.csv,Read,Read1,,VASE,RECOG,CONTROL,87,135,Likert,User,1,"Was this item previously studied?",PRESENTED,Recog,1::2,2022,NO,0,-1,-1,0,0,,1
M20248065,l4tvlo2kg0,"Mediated JOLs recog_MSU",1,141,2023-03-17T05:35:22+00:00,2.2591230869293,1,versionA_stim.csv,ReadVersion.csv,Read,Read1,,KNOB,RECOG,CONTROL,70,87,Likert,User,1,"Was this item previously studied?",CONTROL,Recog,1::2,2003,NO,66.666666666667,-1,-1,0,0,,1
M20248065,l4tvlo2kg0,"Mediated JOLs recog_MSU",1,142,2023-03-17T05:35:32+00:00,10.105276823044,1,versionA_stim.csv,ReadVersion.csv,Read,Read1,,SEED,RECOG,CONTROL,65,93,Likert,User,1,"Was this item previously studied?",CONTROL,Recog,1::2,9207,YES,28.571428571429,-1,-1,0,0,,1
M20248065,l4tvlo2kg0,"Mediated JOLs recog_MSU",1,143,2023-03-17T05:35:35+00:00,2.9542751312256,1,versionA_stim.csv,ReadVersion.csv,Read,Read1,,LEG,RECOG,CONTROL,101,102,Likert,User,1,"Was this item previously studied?",PRESENTED,Recog,1::2,2661,NO,0,-1,-1,0,0,,1
M20248065,l4tvlo2kg0,"Mediated JOLs recog_MSU",1,144,2023-03-17T05:35:38+00:00,2.2880568504333,1,versionA_stim.csv,ReadVersion.csv,Read,Read1,,SMELL,RECOG,CONTROL,79,106,Likert,User,1,"Was this item previously studied?",PRESENTED,Recog,1::2,2029,NO,0,-1,-1,0,0,,1
M20248065,l4tvlo2kg0,"Mediated JOLs recog_MSU",1,145,2023-03-17T05:35:40+00:00,2.1236591339111,1,versionA_stim.csv,ReadVersion.csv,Read,Read1,,FISH,RECOG,Presented,131,81,Likert,User,1,"Was this item previously studied?",CONTROL,Recog,1::2,1844,NO,0,-1,-1,0,0,,1
M20248065,l4tvlo2kg0,"Mediated JOLs recog_MSU",1,146,2023-03-17T05:35:42+00:00,2.3519160747528,1,versionA_stim.csv,ReadVersion.csv,Read,Read1,,WOLF,RECOG,CONTROL,89,75,Likert,User,1,"Was this item previously studied?",CONTROL,Recog,1::2,2081,NO,33.333333333333,-1,-1,0,0,,1
M20248065,l4tvlo2kg0,"Mediated JOLs recog_MSU",1,147,2023-03-17T05:35:45+00:00,2.7814090251923,1,versionA_stim.csv,ReadVersion.csv,Read,Read1,,FLOWER,RECOG,Presented,130,127,Likert,User,1,"Was this item previously studied?",PRESENTED,Recog,1::2,2505,YES,22.222222222222,-1,-1,0,0,,1
M20248065,l4tvlo2kg0,"Mediated JOLs recog_MSU",1,148,2023-03-17T05:35:47+00:00,2.3634929656982,1,versionA_stim.csv,ReadVersion.csv,Read,Read1,,CLOTH,RECOG,Presented,133,129,Likert,User,1,"Was this item previously studied?",PRESENTED,Recog,1::2,2096,YES,0,-1,-1,0,0,,1
M20248065,l4tvlo2kg0,"Mediated JOLs recog_MSU",1,149,2023-03-17T05:35:50+00:00,2.8960449695587,1,versionA_stim.csv,ReadVersion.csv,Read,Read1,,FEATHER,RECOG,CONTROL,64,92,Likert,User,1,"Was this item previously studied?",CONTROL,Recog,1::2,2279,NO,0,-1,-1,0,0,,1
M20248065,l4tvlo2kg0,"Mediated JOLs recog_MSU",1,150,2023-03-17T05:35:52+00:00,2.3661730289459,1,versionA_stim.csv,ReadVersion.csv,Read,Read1,,FINGER,RECOG,Presented,113,67,Likert,User,1,"Was this item previously studied?",CONTROL,Recog,1::2,2008,NO,25,-1,-1,0,0,,1
M20248065,l4tvlo2kg0,"Mediated JOLs recog_MSU",1,151,2023-03-17T05:35:55+00:00,2.3440608978271,1,versionA_stim.csv,ReadVersion.csv,Read,Read1,,,,,,0,Instruct,User,-,"You have completed this section. Please press Enter.",,Instruct7,,2072,,,-1,-1,,,,1
M20248065,l4tvlo2kg0,"Mediated JOLs recog_MSU",1,152,2023-03-17T05:35:57+00:00,2.4768009185791,1,versionA_stim.csv,ReadVersion.csv,Read,Read1,,,,,,0,Instruct,User,-,"The following screen will ask you a few questions abour your experience today. You must complete these questions to receive credit.",,Instruct8,,2211,,,-1,-1,,,,1
