"Username","Condition.Number","Condition.Description","Stimuli.Cue","Stimuli.Answer","Stimuli.Shuffle","Stimuli.Stimuli.Notes","Stimuli.Value","Procedure.Item","Procedure.Trial.Type","Procedure.Shuffle","Procedure.","Response.RT","Response.Response","Response.JOL"
"#M20312509BID",1,"Read","SIP","DRINK","Study1","F",32,48,"Study","Study Phase","",4361,"",NA
"#M20312509BID",1,"Read","SOON","BELT","Study1","U",46,10,"Study","Study Phase","",3744,"",NA
"#M20312509BID",1,"Read","DAY","DARK","Study1","M",18,32,"Study","Study Phase","",3715,"",NA
"#M20312509BID",1,"Read","MEAT","KEYS","Study1","U",41,9,"Study","Study Phase","",3593,"",NA
"#M20312509BID",1,"Read","TUNA","FISH","Study1","F",35,28,"Study","Study Phase","",1414,"",NA
"#M20312509BID",1,"Read","CRACKLE","ELECTION","Study1","U",39,49,"Study","Study Phase","",3780,"",NA
"#M20312509BID",1,"Read","MAZE","PHONE","Study1","U",42,25,"Study","Study Phase","",1791,"",NA
"#M20312509BID",1,"Read","BIRTHDAY","PIE","Study1","M",9,15,"Study","Study Phase","",4158,"",NA
"#M20312509BID",1,"Read","SHELL","SHAKE","Study1","U",43,42,"Study","Study Phase","",3056,"",NA
"#M20312509BID",1,"Read","TEMPERATURE","MORNING","Study1","U",48,35,"Study","Study Phase","",3730,"",NA
"#M20312509BID",1,"Read","SIGN","TICK","Study1","U",47,40,"Study","Study Phase","",2206,"",NA
"#M20312509BID",1,"Read","CAKE","HAND","Study1","U",49,45,"Study","Study Phase","",1817,"",NA
"#M20312509BID",1,"Read","LISTEN","FICTION","Study1","U",44,8,"Study","Study Phase","",2971,"",NA
"#M20312509BID",1,"Read","WAGE","MONEY","Study1","F",22,21,"Study","Study Phase","",2672,"",NA
"#M20312509BID",1,"Read","BAT","BOUNCE","Study1","M",12,14,"Study","Study Phase","",4729,"",NA
"#M20312509BID",1,"Read","GIVE","STEAK","Study1","U",38,22,"Study","Study Phase","",2598,"",NA
"#M20312509BID",1,"Read","NAP","SLEEP","Study1","F",29,31,"Study","Study Phase","",2228,"",NA
"#M20312509BID",1,"Read","STRETCH","CLOTH","Study1","U",37,23,"Study","Study Phase","",1182,"",NA
"#M20312509BID",1,"Read","SCALP","HEAD","Study1","F",23,33,"Study","Study Phase","",1493,"",NA
"#M20312509BID",1,"Read","TOOTH","HAIR","Study1","M",19,26,"Study","Study Phase","",1660,"",NA
"#M20312509BID",1,"Read","WORD","SENTENCE","Study1","F",27,24,"Study","Study Phase","",3109,"",NA
"#M20312509BID",1,"Read","CRY","BOTTLE","Study1","M",16,39,"Study","Study Phase","",1176,"",NA
"#M20312509BID",1,"Read","WAR","QUIET","Study1","M",8,50,"Study","Study Phase","",1751,"",NA
"#M20312509BID",1,"Read","FUZZY","BANG","Study1","U",50,17,"Study","Study Phase","",1774,"",NA
"#M20312509BID",1,"Read","AFFECTION","LOVE","Study1","F",31,16,"Study","Study Phase","",1570,"",NA
"#M20312509BID",1,"Read","CEILING","CARPET","Study1","M",15,41,"Study","Study Phase","",1808,"",NA
"#M20312509BID",1,"Read","ROOT","PLANT","Study1","F",25,47,"Study","Study Phase","",2615,"",NA
"#M20312509BID",1,"Read","ROUGH","SILK","Study1","M",10,11,"Study","Study Phase","",1732,"",NA
"#M20312509BID",1,"Read","MULE","DONKEY","Study1","F",24,29,"Study","Study Phase","",2362,"",NA
"#M20312509BID",1,"Read","VEHICLE","CHARM","Study1","U",40,37,"Study","Study Phase","",1386,"",NA
"#M20312509BID",1,"Read","WEDDING","FINGER","Study1","M",17,43,"Study","Study Phase","",1938,"",NA
"#M20312509BID",1,"Read","BEACH","BOX","Study1","M",7,7,"Study","Study Phase","",1269,"",NA
"#M20312509BID",1,"Read","SWAN","BIRD","Study1","F",26,46,"Study","Study Phase","",1713,"",NA
"#M20312509BID",1,"Read","KEYS","ROD","Study1","U",45,36,"Study","Study Phase","",1673,"",NA
"#M20312509BID",1,"Read","LION","STRIPES","Study1","M",6,27,"Study","Study Phase","",1359,"",NA
"#M20312509BID",1,"Read","ORCHID","FLOWER","Study1","F",34,20,"Study","Study Phase","",1259,"",NA
"#M20312509BID",1,"Read","TREE","SYRUP","Study1","M",11,12,"Study","Study Phase","",1555,"",NA
"#M20312509BID",1,"Read","HORSE","WHEEL","Study1","M",14,13,"Study","Study Phase","",1192,"",NA
"#M20312509BID",1,"Read","LITTER","TRASH","Study1","F",21,19,"Study","Study Phase","",1765,"",NA
"#M20312509BID",1,"Read","CIRCLE","DANCE","Study1","M",13,51,"Study","Study Phase","",1466,"",NA
"#M20312509BID",1,"Read","MULE","DONKEY","Study1","F",30,44,"Study","Study Phase","",1144,"",NA
"#M20312509BID",1,"Read","CREDIT","CARD","Study1","F",33,38,"Study","Study Phase","",1118,"",NA
"#M20312509BID",1,"Read","MIRROR","MAROON","Study1","U",36,18,"Study","Study Phase","",1326,"",NA
"#M20312509BID",1,"Read","HARD","COTTON","Study1","M",20,30,"Study","Study Phase","",2570,"",NA
"#M20312509BID",1,"Read","HYGIENE","CLEAN","Study1","F",28,34,"Study","Study Phase","",1981,"",NA
"Jadkison0505JA",3,"Read","DIETARY","SACK","Study2","U",42,48,"Study","Study Phase","",3377,"",NA
"Jadkison0505JA",3,"Read","SUMMER","SNOW","Study2","M",6,45,"Study","Study Phase","",2638,"",NA
"Jadkison0505JA",3,"Read","ART","WOLF","Study2","U",38,27,"Study","Study Phase","",2591,"",NA
"Jadkison0505JA",3,"Read","NURSE","LAWYER","Study2","M",11,9,"Study","Study Phase","",2486,"",NA
"Jadkison0505JA",3,"Read","GRILL","THIGH","Study2","M",17,50,"Study","Study Phase","",2772,"",NA
"Jadkison0505JA",3,"Read","BOTH","OUNCE","Study2","U",47,13,"Study","Study Phase","",2900,"",NA
"Jadkison0505JA",3,"Read","HEAVY","FEATHER","Study2","M",13,29,"Study","Study Phase","",2613,"",NA
"Jadkison0505JA",3,"Read","INCENSE","SMELL","Study2","F",28,17,"Study","Study Phase","",4471,"",NA
"Jadkison0505JA",3,"Read","HORNET","STING","Study2","F",30,10,"Study","Study Phase","",2969,"",NA
"Jadkison0505JA",3,"Read","LEAGUE","BASEBALL","Study2","F",29,38,"Study","Study Phase","",2706,"",NA
"Jadkison0505JA",3,"Read","FEUD","FIGHT","Study2","F",31,42,"Study","Study Phase","",2710,"",NA
"Jadkison0505JA",3,"Read","OVEN","BASKET","Study2","M",16,12,"Study","Study Phase","",2677,"",NA
"Jadkison0505JA",3,"Read","SCHOOL","STOP","Study2","M",7,11,"Study","Study Phase","",2596,"",NA
"Jadkison0505JA",3,"Read","STRONG","ACCIDENT","Study2","U",39,46,"Study","Study Phase","",3153,"",NA
"Jadkison0505JA",3,"Read","SICK","HIDE","Study2","U",45,26,"Study","Study Phase","",3391,"",NA
"Jadkison0505JA",3,"Read","RAKE","SEED","Study2","M",14,41,"Study","Study Phase","",2858,"",NA
"Jadkison0505JA",3,"Read","KING","VASE","Study2","U",36,49,"Study","Study Phase","",3252,"",NA
"Jadkison0505JA",3,"Read","TRAP","CAVE","Study2","M",15,39,"Study","Study Phase","",3039,"",NA
"Jadkison0505JA",3,"Read","DOCUMENT","PAPER","Study2","F",27,44,"Study","Study Phase","",3094,"",NA
"Jadkison0505JA",3,"Read","RAZOR","MUSCLE","Study2","M",20,15,"Study","Study Phase","",3364,"",NA
"Jadkison0505JA",3,"Read","SOAP","DRINK","Study2","M",12,47,"Study","Study Phase","",3469,"",NA
"Jadkison0505JA",3,"Read","PANTS","COLLAR","Study2","M",8,34,"Study","Study Phase","",3575,"",NA
"Jadkison0505JA",3,"Read","DEATH","BUSINESS","Study2","U",44,14,"Study","Study Phase","",3584,"",NA
"Jadkison0505JA",3,"Read","CACTUS","PLANT","Study2","F",21,35,"Study","Study Phase","",2826,"",NA
"Jadkison0505JA",3,"Read","ARTERY","BRONZE","Study2","U",48,22,"Study","Study Phase","",4699,"",NA
"Jadkison0505JA",3,"Read","CHERRY","RED","Study2","F",25,23,"Study","Study Phase","",2985,"",NA
"Jadkison0505JA",3,"Read","WASP","BUG","Study2","F",34,36,"Study","Study Phase","",3246,"",NA
"Jadkison0505JA",3,"Read","MIRROR","CHILDREN","Study2","U",49,30,"Study","Study Phase","",4703,"",NA
"Jadkison0505JA",3,"Read","HAPPY","CAR","Study2","U",37,20,"Study","Study Phase","",3033,"",NA
"Jadkison0505JA",3,"Read","HERD","COW","Study2","F",33,21,"Study","Study Phase","",2702,"",NA
"Jadkison0505JA",3,"Read","PUSH","CLUTTER","Study2","U",41,43,"Study","Study Phase","",2729,"",NA
"Jadkison0505JA",3,"Read","CHILL","COLD","Study2","F",32,16,"Study","Study Phase","",2976,"",NA
"Jadkison0505JA",3,"Read","VALLEY","PEAK","Study2","M",18,37,"Study","Study Phase","",4145,"",NA
"Jadkison0505JA",3,"Read","BRIDGE","WATER","Study2","F",35,18,"Study","Study Phase","",3252,"",NA
"Jadkison0505JA",3,"Read","REALITY","ISLAND","Study2","M",9,19,"Study","Study Phase","",4096,"",NA
"Jadkison0505JA",3,"Read","EYES","SMELL","Study2","M",10,33,"Study","Study Phase","",3779,"",NA
"Jadkison0505JA",3,"Read","ATTIRE","CLOTHES","Study2","F",24,40,"Study","Study Phase","",4441,"",NA
"Jadkison0505JA",3,"Read","SUGAR","RIDDLE","Study2","U",40,31,"Study","Study Phase","",3556,"",NA
"Jadkison0505JA",3,"Read","CHOP","CUT","Study2","F",22,8,"Study","Study Phase","",2951,"",NA
"Jadkison0505JA",3,"Read","WINDOW","KNOB","Study2","M",19,7,"Study","Study Phase","",3789,"",NA
"Jadkison0505JA",3,"Read","CASH","LEG","Study2","U",50,28,"Study","Study Phase","",3083,"",NA
"Jadkison0505JA",3,"Read","BENCH","HORN","Study2","U",43,51,"Study","Study Phase","",3342,"",NA
"Jadkison0505JA",3,"Read","CHISEL","HAMMER","Study2","F",23,32,"Study","Study Phase","",3621,"",NA
"Jadkison0505JA",3,"Read","BLAZE","FIRE","Study2","F",26,25,"Study","Study Phase","",3208,"",NA
"Jadkison0505JA",3,"Read","LEASE","TOIL","Study2","U",46,24,"Study","Study Phase","",3176,"",NA
"M20248065",1,"Read","TEMPERATURE","MORNING","Study1","U",48,37,"Study","Study Phase","",847,"",NA
"M20248065",1,"Read","TUNA","FISH","Study1","F",35,26,"Study","Study Phase","",1079,"",NA
"M20248065",1,"Read","WAR","QUIET","Study1","M",8,30,"Study","Study Phase","",2402,"",NA
"M20248065",1,"Read","ORCHID","FLOWER","Study1","F",34,45,"Study","Study Phase","",1426,"",NA
"M20248065",1,"Read","ROUGH","SILK","Study1","M",10,7,"Study","Study Phase","",1542,"",NA
"M20248065",1,"Read","BIRTHDAY","PIE","Study1","M",9,12,"Study","Study Phase","",1471,"",NA
"M20248065",1,"Read","HORSE","WHEEL","Study1","M",14,14,"Study","Study Phase","",1580,"",NA
"M20248065",1,"Read","DAY","DARK","Study1","M",18,13,"Study","Study Phase","",771,"",NA
"M20248065",1,"Read","MULE","DONKEY","Study1","F",30,33,"Study","Study Phase","",741,"",NA
"M20248065",1,"Read","WAGE","MONEY","Study1","F",22,31,"Study","Study Phase","",610,"",NA
"M20248065",1,"Read","SIP","DRINK","Study1","F",32,39,"Study","Study Phase","",801,"",NA
"M20248065",1,"Read","SCALP","HEAD","Study1","F",23,49,"Study","Study Phase","",793,"",NA
"M20248065",1,"Read","MAZE","PHONE","Study1","U",42,51,"Study","Study Phase","",520,"",NA
"M20248065",1,"Read","CEILING","CARPET","Study1","M",15,17,"Study","Study Phase","",717,"",NA
"M20248065",1,"Read","WORD","SENTENCE","Study1","F",27,21,"Study","Study Phase","",744,"",NA
"M20248065",1,"Read","CIRCLE","DANCE","Study1","M",13,41,"Study","Study Phase","",719,"",NA
"M20248065",1,"Read","STRETCH","CLOTH","Study1","U",37,24,"Study","Study Phase","",4710,"",NA
"M20248065",1,"Read","CAKE","HAND","Study1","U",49,11,"Study","Study Phase","",886,"",NA
"M20248065",1,"Read","LITTER","TRASH","Study1","F",21,25,"Study","Study Phase","",765,"",NA
"M20248065",1,"Read","SHELL","SHAKE","Study1","U",43,35,"Study","Study Phase","",673,"",NA
"M20248065",1,"Read","HYGIENE","CLEAN","Study1","F",28,38,"Study","Study Phase","",684,"",NA
"M20248065",1,"Read","LION","STRIPES","Study1","M",6,46,"Study","Study Phase","",725,"",NA
"M20248065",1,"Read","MIRROR","MAROON","Study1","U",36,47,"Study","Study Phase","",663,"",NA
"M20248065",1,"Read","MULE","DONKEY","Study1","F",24,32,"Study","Study Phase","",1320,"",NA
"M20248065",1,"Read","MEAT","KEYS","Study1","U",41,28,"Study","Study Phase","",607,"",NA
"M20248065",1,"Read","CRACKLE","ELECTION","Study1","U",39,27,"Study","Study Phase","",509,"",NA
"M20248065",1,"Read","KEYS","ROD","Study1","U",45,23,"Study","Study Phase","",750,"",NA
"M20248065",1,"Read","SWAN","BIRD","Study1","F",26,48,"Study","Study Phase","",840,"",NA
"M20248065",1,"Read","CRY","BOTTLE","Study1","M",16,8,"Study","Study Phase","",757,"",NA
"M20248065",1,"Read","HARD","COTTON","Study1","M",20,15,"Study","Study Phase","",694,"",NA
"M20248065",1,"Read","AFFECTION","LOVE","Study1","F",31,9,"Study","Study Phase","",2540,"",NA
"M20248065",1,"Read","TREE","SYRUP","Study1","M",11,19,"Study","Study Phase","",1156,"",NA
"M20248065",1,"Read","TOOTH","HAIR","Study1","M",19,43,"Study","Study Phase","",2772,"",NA
"M20248065",1,"Read","CREDIT","CARD","Study1","F",33,40,"Study","Study Phase","",1158,"",NA
"M20248065",1,"Read","GIVE","STEAK","Study1","U",38,10,"Study","Study Phase","",1146,"",NA
"M20248065",1,"Read","NAP","SLEEP","Study1","F",29,22,"Study","Study Phase","",2320,"",NA
"M20248065",1,"Read","BEACH","BOX","Study1","M",7,16,"Study","Study Phase","",702,"",NA
"M20248065",1,"Read","BAT","BOUNCE","Study1","M",12,36,"Study","Study Phase","",974,"",NA
"M20248065",1,"Read","VEHICLE","CHARM","Study1","U",40,42,"Study","Study Phase","",785,"",NA
"M20248065",1,"Read","SIGN","TICK","Study1","U",47,29,"Study","Study Phase","",749,"",NA
"M20248065",1,"Read","FUZZY","BANG","Study1","U",50,20,"Study","Study Phase","",581,"",NA
"M20248065",1,"Read","LISTEN","FICTION","Study1","U",44,34,"Study","Study Phase","",497,"",NA
"M20248065",1,"Read","WEDDING","FINGER","Study1","M",17,50,"Study","Study Phase","",585,"",NA
"M20248065",1,"Read","SOON","BELT","Study1","U",46,44,"Study","Study Phase","",1067,"",NA
"M20248065",1,"Read","ROOT","PLANT","Study1","F",25,18,"Study","Study Phase","",869,"",NA
"M20248455C.W.",3,"Read","HAPPY","CAR","Study2","U",37,16,"Study","Study Phase","",3212,"",NA
"M20248455C.W.",3,"Read","STRONG","ACCIDENT","Study2","U",39,38,"Study","Study Phase","",2905,"",NA
"M20248455C.W.",3,"Read","HORNET","STING","Study2","F",30,11,"Study","Study Phase","",2682,"",NA
"M20248455C.W.",3,"Read","BOTH","OUNCE","Study2","U",47,49,"Study","Study Phase","",3286,"",NA
"M20248455C.W.",3,"Read","PUSH","CLUTTER","Study2","U",41,43,"Study","Study Phase","",3400,"",NA
"M20248455C.W.",3,"Read","DEATH","BUSINESS","Study2","U",44,24,"Study","Study Phase","",2819,"",NA
"M20248455C.W.",3,"Read","FEUD","FIGHT","Study2","F",31,45,"Study","Study Phase","",3651,"",NA
"M20248455C.W.",3,"Read","BLAZE","FIRE","Study2","F",26,26,"Study","Study Phase","",1705,"",NA
"M20248455C.W.",3,"Read","SOAP","DRINK","Study2","M",12,25,"Study","Study Phase","",2213,"",NA
"M20248455C.W.",3,"Read","MIRROR","CHILDREN","Study2","U",49,41,"Study","Study Phase","",2548,"",NA
"M20248455C.W.",3,"Read","SUMMER","SNOW","Study2","M",6,13,"Study","Study Phase","",2135,"",NA
"M20248455C.W.",3,"Read","CHERRY","RED","Study2","F",25,19,"Study","Study Phase","",1376,"",NA
"M20248455C.W.",3,"Read","CASH","LEG","Study2","U",50,37,"Study","Study Phase","",3575,"",NA
"M20248455C.W.",3,"Read","BENCH","HORN","Study2","U",43,23,"Study","Study Phase","",3675,"",NA
"M20248455C.W.",3,"Read","LEAGUE","BASEBALL","Study2","F",29,17,"Study","Study Phase","",2247,"",NA
"M20248455C.W.",3,"Read","CHILL","COLD","Study2","F",32,34,"Study","Study Phase","",3559,"",NA
"M20248455C.W.",3,"Read","SICK","HIDE","Study2","U",45,14,"Study","Study Phase","",2615,"",NA
"M20248455C.W.",3,"Read","CHISEL","HAMMER","Study2","F",23,33,"Study","Study Phase","",2097,"",NA
"M20248455C.W.",3,"Read","HERD","COW","Study2","F",33,50,"Study","Study Phase","",2172,"",NA
"M20248455C.W.",3,"Read","DIETARY","SACK","Study2","U",42,35,"Study","Study Phase","",5719,"",NA
"M20248455C.W.",3,"Read","HEAVY","FEATHER","Study2","M",13,44,"Study","Study Phase","",2808,"",NA
"M20248455C.W.",3,"Read","WINDOW","KNOB","Study2","M",19,31,"Study","Study Phase","",4088,"",NA
"M20248455C.W.",3,"Read","ATTIRE","CLOTHES","Study2","F",24,39,"Study","Study Phase","",2001,"",NA
"M20248455C.W.",3,"Read","ART","WOLF","Study2","U",38,28,"Study","Study Phase","",1958,"",NA
"M20248455C.W.",3,"Read","GRILL","THIGH","Study2","M",17,10,"Study","Study Phase","",3081,"",NA
"M20248455C.W.",3,"Read","SUGAR","RIDDLE","Study2","U",40,47,"Study","Study Phase","",3979,"",NA
"M20248455C.W.",3,"Read","EYES","SMELL","Study2","M",10,22,"Study","Study Phase","",3673,"",NA
"M20248455C.W.",3,"Read","WASP","BUG","Study2","F",34,42,"Study","Study Phase","",3339,"",NA
"M20248455C.W.",3,"Read","LEASE","TOIL","Study2","U",46,18,"Study","Study Phase","",6929,"",NA
"M20248455C.W.",3,"Read","INCENSE","SMELL","Study2","F",28,29,"Study","Study Phase","",1881,"",NA
"M20248455C.W.",3,"Read","OVEN","BASKET","Study2","M",16,15,"Study","Study Phase","",4980,"",NA
"M20248455C.W.",3,"Read","KING","VASE","Study2","U",36,27,"Study","Study Phase","",2886,"",NA
"M20248455C.W.",3,"Read","CHOP","CUT","Study2","F",22,7,"Study","Study Phase","",2891,"",NA
"M20248455C.W.",3,"Read","PANTS","COLLAR","Study2","M",8,30,"Study","Study Phase","",2120,"",NA
"M20248455C.W.",3,"Read","CACTUS","PLANT","Study2","F",21,12,"Study","Study Phase","",1572,"",NA
"M20248455C.W.",3,"Read","NURSE","LAWYER","Study2","M",11,9,"Study","Study Phase","",2474,"",NA
"M20248455C.W.",3,"Read","RAKE","SEED","Study2","M",14,21,"Study","Study Phase","",2269,"",NA
"M20248455C.W.",3,"Read","VALLEY","PEAK","Study2","M",18,20,"Study","Study Phase","",3036,"",NA
"M20248455C.W.",3,"Read","TRAP","CAVE","Study2","M",15,48,"Study","Study Phase","",4770,"",NA
"M20248455C.W.",3,"Read","RAZOR","MUSCLE","Study2","M",20,8,"Study","Study Phase","",8824,"",NA
"M20248455C.W.",3,"Read","SCHOOL","STOP","Study2","M",7,36,"Study","Study Phase","",7812,"",NA
"M20248455C.W.",3,"Read","REALITY","ISLAND","Study2","M",9,40,"Study","Study Phase","",3637,"",NA
"M20248455C.W.",3,"Read","BRIDGE","WATER","Study2","F",35,32,"Study","Study Phase","",1786,"",NA
"M20248455C.W.",3,"Read","DOCUMENT","PAPER","Study2","F",27,51,"Study","Study Phase","",2243,"",NA
"M20248455C.W.",3,"Read","ARTERY","BRONZE","Study2","U",48,46,"Study","Study Phase","",14459,"",NA
"M20278329mjd",1,"Read","TEMPERATURE","MORNING","Study1","U",48,45,"Study","Study Phase","",1338,"",NA
"M20278329mjd",1,"Read","CRACKLE","ELECTION","Study1","U",39,25,"Study","Study Phase","",1322,"",NA
"M20278329mjd",1,"Read","CREDIT","CARD","Study1","F",33,32,"Study","Study Phase","",1290,"",NA
"M20278329mjd",1,"Read","BEACH","BOX","Study1","M",7,48,"Study","Study Phase","",1309,"",NA
"M20278329mjd",1,"Read","KEYS","ROD","Study1","U",45,46,"Study","Study Phase","",1412,"",NA
"M20278329mjd",1,"Read","HARD","COTTON","Study1","M",20,43,"Study","Study Phase","",2631,"",NA
"M20278329mjd",1,"Read","WAGE","MONEY","Study1","F",22,20,"Study","Study Phase","",1626,"",NA
"M20278329mjd",1,"Read","GIVE","STEAK","Study1","U",38,40,"Study","Study Phase","",2214,"",NA
"M20278329mjd",1,"Read","CEILING","CARPET","Study1","M",15,23,"Study","Study Phase","",1469,"",NA
"M20278329mjd",1,"Read","MEAT","KEYS","Study1","U",41,17,"Study","Study Phase","",3433,"",NA
"M20278329mjd",1,"Read","SIGN","TICK","Study1","U",47,34,"Study","Study Phase","",2622,"",NA
"M20278329mjd",1,"Read","TUNA","FISH","Study1","F",35,19,"Study","Study Phase","",2107,"",NA
"M20278329mjd",1,"Read","WORD","SENTENCE","Study1","F",27,15,"Study","Study Phase","",1448,"",NA
"M20278329mjd",1,"Read","HORSE","WHEEL","Study1","M",14,7,"Study","Study Phase","",3398,"",NA
"M20278329mjd",1,"Read","MULE","DONKEY","Study1","F",30,35,"Study","Study Phase","",1253,"",NA
"M20278329mjd",1,"Read","DAY","DARK","Study1","M",18,8,"Study","Study Phase","",2990,"",NA
"M20278329mjd",1,"Read","MULE","DONKEY","Study1","F",24,12,"Study","Study Phase","",1835,"",NA
"M20278329mjd",1,"Read","MAZE","PHONE","Study1","U",42,30,"Study","Study Phase","",1781,"",NA
"M20278329mjd",1,"Read","TOOTH","HAIR","Study1","M",19,29,"Study","Study Phase","",1079,"",NA
"M20278329mjd",1,"Read","CIRCLE","DANCE","Study1","M",13,18,"Study","Study Phase","",1282,"",NA
"M20278329mjd",1,"Read","TREE","SYRUP","Study1","M",11,50,"Study","Study Phase","",2627,"",NA
"M20278329mjd",1,"Read","ROUGH","SILK","Study1","M",10,51,"Study","Study Phase","",13011,"",NA
"M20278329mjd",1,"Read","LITTER","TRASH","Study1","F",21,42,"Study","Study Phase","",754,"",NA
"M20278329mjd",1,"Read","CAKE","HAND","Study1","U",49,28,"Study","Study Phase","",960,"",NA
"M20278329mjd",1,"Read","FUZZY","BANG","Study1","U",50,39,"Study","Study Phase","",1065,"",NA
"M20278329mjd",1,"Read","ROOT","PLANT","Study1","F",25,37,"Study","Study Phase","",1625,"",NA
"M20278329mjd",1,"Read","SCALP","HEAD","Study1","F",23,47,"Study","Study Phase","",931,"",NA
"M20278329mjd",1,"Read","CRY","BOTTLE","Study1","M",16,14,"Study","Study Phase","",921,"",NA
"M20278329mjd",1,"Read","SHELL","SHAKE","Study1","U",43,24,"Study","Study Phase","",1005,"",NA
"M20278329mjd",1,"Read","ORCHID","FLOWER","Study1","F",34,11,"Study","Study Phase","",911,"",NA
"M20278329mjd",1,"Read","LISTEN","FICTION","Study1","U",44,31,"Study","Study Phase","",916,"",NA
"M20278329mjd",1,"Read","MIRROR","MAROON","Study1","U",36,26,"Study","Study Phase","",1113,"",NA
"M20278329mjd",1,"Read","VEHICLE","CHARM","Study1","U",40,41,"Study","Study Phase","",958,"",NA
"M20278329mjd",1,"Read","STRETCH","CLOTH","Study1","U",37,13,"Study","Study Phase","",952,"",NA
"M20278329mjd",1,"Read","SOON","BELT","Study1","U",46,9,"Study","Study Phase","",976,"",NA
"M20278329mjd",1,"Read","LION","STRIPES","Study1","M",6,36,"Study","Study Phase","",1024,"",NA
"M20278329mjd",1,"Read","NAP","SLEEP","Study1","F",29,27,"Study","Study Phase","",947,"",NA
"M20278329mjd",1,"Read","SWAN","BIRD","Study1","F",26,49,"Study","Study Phase","",944,"",NA
"M20278329mjd",1,"Read","WAR","QUIET","Study1","M",8,16,"Study","Study Phase","",1023,"",NA
"M20278329mjd",1,"Read","AFFECTION","LOVE","Study1","F",31,10,"Study","Study Phase","",1097,"",NA
"M20278329mjd",1,"Read","HYGIENE","CLEAN","Study1","F",28,44,"Study","Study Phase","",1013,"",NA
"M20278329mjd",1,"Read","WEDDING","FINGER","Study1","M",17,21,"Study","Study Phase","",1089,"",NA
"M20278329mjd",1,"Read","BAT","BOUNCE","Study1","M",12,33,"Study","Study Phase","",1122,"",NA
"M20278329mjd",1,"Read","BIRTHDAY","PIE","Study1","M",9,38,"Study","Study Phase","",1459,"",NA
"M20278329mjd",1,"Read","SIP","DRINK","Study1","F",32,22,"Study","Study Phase","",1208,"",NA
"M20279049_el",3,"Read","CHILL","COLD","Study2","F",32,27,"Study","Study Phase","",887,"",NA
"M20279049_el",3,"Read","NURSE","LAWYER","Study2","M",11,32,"Study","Study Phase","",1954,"",NA
"M20279049_el",3,"Read","WINDOW","KNOB","Study2","M",19,34,"Study","Study Phase","",1239,"",NA
"M20279049_el",3,"Read","KING","VASE","Study2","U",36,14,"Study","Study Phase","",811,"",NA
"M20279049_el",3,"Read","PUSH","CLUTTER","Study2","U",41,30,"Study","Study Phase","",1063,"",NA
"M20279049_el",3,"Read","LEAGUE","BASEBALL","Study2","F",29,37,"Study","Study Phase","",837,"",NA
"M20279049_el",3,"Read","HAPPY","CAR","Study2","U",37,50,"Study","Study Phase","",687,"",NA
"M20279049_el",3,"Read","SCHOOL","STOP","Study2","M",7,43,"Study","Study Phase","",547,"",NA
"M20279049_el",3,"Read","BOTH","OUNCE","Study2","U",47,22,"Study","Study Phase","",621,"",NA
"M20279049_el",3,"Read","RAZOR","MUSCLE","Study2","M",20,44,"Study","Study Phase","",693,"",NA
"M20279049_el",3,"Read","STRONG","ACCIDENT","Study2","U",39,46,"Study","Study Phase","",662,"",NA
"M20279049_el",3,"Read","SOAP","DRINK","Study2","M",12,31,"Study","Study Phase","",901,"",NA
"M20279049_el",3,"Read","REALITY","ISLAND","Study2","M",9,29,"Study","Study Phase","",1405,"",NA
"M20279049_el",3,"Read","PANTS","COLLAR","Study2","M",8,23,"Study","Study Phase","",6814,"",NA
"M20279049_el",3,"Read","CHERRY","RED","Study2","F",25,49,"Study","Study Phase","",2083,"",NA
"M20279049_el",3,"Read","CHOP","CUT","Study2","F",22,35,"Study","Study Phase","",2551,"",NA
"M20279049_el",3,"Read","EYES","SMELL","Study2","M",10,47,"Study","Study Phase","",1511,"",NA
"M20279049_el",3,"Read","DOCUMENT","PAPER","Study2","F",27,7,"Study","Study Phase","",1004,"",NA
"M20279049_el",3,"Read","ART","WOLF","Study2","U",38,9,"Study","Study Phase","",1100,"",NA
"M20279049_el",3,"Read","OVEN","BASKET","Study2","M",16,26,"Study","Study Phase","",1060,"",NA
"M20279049_el",3,"Read","SUMMER","SNOW","Study2","M",6,39,"Study","Study Phase","",1020,"",NA
"M20279049_el",3,"Read","BRIDGE","WATER","Study2","F",35,13,"Study","Study Phase","",1096,"",NA
"M20279049_el",3,"Read","TRAP","CAVE","Study2","M",15,38,"Study","Study Phase","",936,"",NA
"M20279049_el",3,"Read","LEASE","TOIL","Study2","U",46,51,"Study","Study Phase","",1181,"",NA
"M20279049_el",3,"Read","HERD","COW","Study2","F",33,48,"Study","Study Phase","",227,"",NA
"M20279049_el",3,"Read","VALLEY","PEAK","Study2","M",18,41,"Study","Study Phase","",1494,"",NA
"M20279049_el",3,"Read","MIRROR","CHILDREN","Study2","U",49,16,"Study","Study Phase","",1283,"",NA
"M20279049_el",3,"Read","GRILL","THIGH","Study2","M",17,18,"Study","Study Phase","",1114,"",NA
"M20279049_el",3,"Read","CHISEL","HAMMER","Study2","F",23,33,"Study","Study Phase","",3923,"",NA
"M20279049_el",3,"Read","INCENSE","SMELL","Study2","F",28,24,"Study","Study Phase","",1786,"",NA
"M20279049_el",3,"Read","RAKE","SEED","Study2","M",14,45,"Study","Study Phase","",1193,"",NA
"M20279049_el",3,"Read","DEATH","BUSINESS","Study2","U",44,42,"Study","Study Phase","",1513,"",NA
"M20279049_el",3,"Read","HEAVY","FEATHER","Study2","M",13,10,"Study","Study Phase","",1874,"",NA
"M20279049_el",3,"Read","FEUD","FIGHT","Study2","F",31,40,"Study","Study Phase","",1118,"",NA
"M20279049_el",3,"Read","HORNET","STING","Study2","F",30,25,"Study","Study Phase","",2797,"",NA
"M20279049_el",3,"Read","WASP","BUG","Study2","F",34,36,"Study","Study Phase","",2152,"",NA
"M20279049_el",3,"Read","ARTERY","BRONZE","Study2","U",48,21,"Study","Study Phase","",2785,"",NA
"M20279049_el",3,"Read","BENCH","HORN","Study2","U",43,12,"Study","Study Phase","",630,"",NA
"M20279049_el",3,"Read","ATTIRE","CLOTHES","Study2","F",24,11,"Study","Study Phase","",210,"",NA
"M20279049_el",3,"Read","DIETARY","SACK","Study2","U",42,19,"Study","Study Phase","",180,"",NA
"M20279049_el",3,"Read","BLAZE","FIRE","Study2","F",26,20,"Study","Study Phase","",108,"",NA
"M20279049_el",3,"Read","SUGAR","RIDDLE","Study2","U",40,17,"Study","Study Phase","",316,"",NA
"M20279049_el",3,"Read","SICK","HIDE","Study2","U",45,15,"Study","Study Phase","",84,"",NA
"M20279049_el",3,"Read","CACTUS","PLANT","Study2","F",21,8,"Study","Study Phase","",145,"",NA
"M20279049_el",3,"Read","CASH","LEG","Study2","U",50,28,"Study","Study Phase","",142,"",NA
"M20291306_KOPR",1,"Read","SWAN","BIRD","Study1","F",26,13,"Study","Study Phase","",1977,"",NA
"M20291306_KOPR",1,"Read","LITTER","TRASH","Study1","F",21,26,"Study","Study Phase","",2114,"",NA
"M20291306_KOPR",1,"Read","AFFECTION","LOVE","Study1","F",31,14,"Study","Study Phase","",8058,"",NA
"M20291306_KOPR",1,"Read","CREDIT","CARD","Study1","F",33,27,"Study","Study Phase","",1498,"",NA
"M20291306_KOPR",1,"Read","ORCHID","FLOWER","Study1","F",34,15,"Study","Study Phase","",1367,"",NA
"M20291306_KOPR",1,"Read","MEAT","KEYS","Study1","U",41,40,"Study","Study Phase","",5329,"",NA
"M20291306_KOPR",1,"Read","SCALP","HEAD","Study1","F",23,31,"Study","Study Phase","",2801,"",NA
"M20291306_KOPR",1,"Read","ROOT","PLANT","Study1","F",25,21,"Study","Study Phase","",1719,"",NA
"M20291306_KOPR",1,"Read","SOON","BELT","Study1","U",46,18,"Study","Study Phase","",2724,"",NA
"M20291306_KOPR",1,"Read","CRY","BOTTLE","Study1","M",16,39,"Study","Study Phase","",1844,"",NA
"M20291306_KOPR",1,"Read","NAP","SLEEP","Study1","F",29,17,"Study","Study Phase","",1170,"",NA
"M20291306_KOPR",1,"Read","CAKE","HAND","Study1","U",49,46,"Study","Study Phase","",2044,"",NA
"M20291306_KOPR",1,"Read","BIRTHDAY","PIE","Study1","M",9,16,"Study","Study Phase","",1799,"",NA
"M20291306_KOPR",1,"Read","GIVE","STEAK","Study1","U",38,34,"Study","Study Phase","",2390,"",NA
"M20291306_KOPR",1,"Read","BEACH","BOX","Study1","M",7,43,"Study","Study Phase","",938,"",NA
"M20291306_KOPR",1,"Read","MULE","DONKEY","Study1","F",24,38,"Study","Study Phase","",1109,"",NA
"M20291306_KOPR",1,"Read","TREE","SYRUP","Study1","M",11,11,"Study","Study Phase","",7230,"",NA
"M20291306_KOPR",1,"Read","TEMPERATURE","MORNING","Study1","U",48,47,"Study","Study Phase","",3240,"",NA
"M20291306_KOPR",1,"Read","MIRROR","MAROON","Study1","U",36,35,"Study","Study Phase","",1893,"",NA
"M20291306_KOPR",1,"Read","TUNA","FISH","Study1","F",35,36,"Study","Study Phase","",1063,"",NA
"M20291306_KOPR",1,"Read","LISTEN","FICTION","Study1","U",44,37,"Study","Study Phase","",1990,"",NA
"M20291306_KOPR",1,"Read","FUZZY","BANG","Study1","U",50,22,"Study","Study Phase","",2611,"",NA
"M20291306_KOPR",1,"Read","HORSE","WHEEL","Study1","M",14,45,"Study","Study Phase","",3408,"",NA
"M20291306_KOPR",1,"Read","LION","STRIPES","Study1","M",6,33,"Study","Study Phase","",2811,"",NA
"M20291306_KOPR",1,"Read","CEILING","CARPET","Study1","M",15,8,"Study","Study Phase","",2286,"",NA
"M20291306_KOPR",1,"Read","STRETCH","CLOTH","Study1","U",37,7,"Study","Study Phase","",1550,"",NA
"M20291306_KOPR",1,"Read","MAZE","PHONE","Study1","U",42,24,"Study","Study Phase","",2086,"",NA
"M20291306_KOPR",1,"Read","CRACKLE","ELECTION","Study1","U",39,41,"Study","Study Phase","",2093,"",NA
"M20291306_KOPR",1,"Read","CIRCLE","DANCE","Study1","M",13,23,"Study","Study Phase","",1621,"",NA
"M20291306_KOPR",1,"Read","TOOTH","HAIR","Study1","M",19,50,"Study","Study Phase","",1143,"",NA
"M20291306_KOPR",1,"Read","KEYS","ROD","Study1","U",45,20,"Study","Study Phase","",1276,"",NA
"M20291306_KOPR",1,"Read","DAY","DARK","Study1","M",18,48,"Study","Study Phase","",1638,"",NA
"M20291306_KOPR",1,"Read","SIP","DRINK","Study1","F",32,19,"Study","Study Phase","",1684,"",NA
"M20291306_KOPR",1,"Read","ROUGH","SILK","Study1","M",10,25,"Study","Study Phase","",1065,"",NA
"M20291306_KOPR",1,"Read","SIGN","TICK","Study1","U",47,32,"Study","Study Phase","",1648,"",NA
"M20291306_KOPR",1,"Read","WEDDING","FINGER","Study1","M",17,30,"Study","Study Phase","",1388,"",NA
"M20291306_KOPR",1,"Read","WAR","QUIET","Study1","M",8,44,"Study","Study Phase","",983,"",NA
"M20291306_KOPR",1,"Read","WAGE","MONEY","Study1","F",22,9,"Study","Study Phase","",2566,"",NA
"M20291306_KOPR",1,"Read","BAT","BOUNCE","Study1","M",12,29,"Study","Study Phase","",909,"",NA
"M20291306_KOPR",1,"Read","WORD","SENTENCE","Study1","F",27,51,"Study","Study Phase","",1413,"",NA
"M20291306_KOPR",1,"Read","MULE","DONKEY","Study1","F",30,12,"Study","Study Phase","",1039,"",NA
"M20291306_KOPR",1,"Read","VEHICLE","CHARM","Study1","U",40,42,"Study","Study Phase","",1699,"",NA
"M20291306_KOPR",1,"Read","SHELL","SHAKE","Study1","U",43,10,"Study","Study Phase","",1121,"",NA
"M20291306_KOPR",1,"Read","HYGIENE","CLEAN","Study1","F",28,49,"Study","Study Phase","",1313,"",NA
"M20291306_KOPR",1,"Read","HARD","COTTON","Study1","M",20,28,"Study","Study Phase","",1256,"",NA
"M20292814_jnr",3,"Read","ATTIRE","CLOTHES","Study2","F",24,28,"Study","Study Phase","",2725,"",NA
"M20292814_jnr",3,"Read","BLAZE","FIRE","Study2","F",26,34,"Study","Study Phase","",2401,"",NA
"M20292814_jnr",3,"Read","PUSH","CLUTTER","Study2","U",41,32,"Study","Study Phase","",2166,"",NA
"M20292814_jnr",3,"Read","KING","VASE","Study2","U",36,21,"Study","Study Phase","",2003,"",NA
"M20292814_jnr",3,"Read","BRIDGE","WATER","Study2","F",35,29,"Study","Study Phase","",1824,"",NA
"M20292814_jnr",3,"Read","TRAP","CAVE","Study2","M",15,45,"Study","Study Phase","",2109,"",NA
"M20292814_jnr",3,"Read","GRILL","THIGH","Study2","M",17,51,"Study","Study Phase","",2447,"",NA
"M20292814_jnr",3,"Read","WINDOW","KNOB","Study2","M",19,41,"Study","Study Phase","",3044,"",NA
"M20292814_jnr",3,"Read","HORNET","STING","Study2","F",30,39,"Study","Study Phase","",2490,"",NA
"M20292814_jnr",3,"Read","CASH","LEG","Study2","U",50,47,"Study","Study Phase","",3537,"",NA
"M20292814_jnr",3,"Read","DEATH","BUSINESS","Study2","U",44,44,"Study","Study Phase","",1995,"",NA
"M20292814_jnr",3,"Read","INCENSE","SMELL","Study2","F",28,36,"Study","Study Phase","",1492,"",NA
"M20292814_jnr",3,"Read","CACTUS","PLANT","Study2","F",21,40,"Study","Study Phase","",1444,"",NA
"M20292814_jnr",3,"Read","HERD","COW","Study2","F",33,43,"Study","Study Phase","",1776,"",NA
"M20292814_jnr",3,"Read","SUGAR","RIDDLE","Study2","U",40,26,"Study","Study Phase","",3639,"",NA
"M20292814_jnr",3,"Read","BOTH","OUNCE","Study2","U",47,17,"Study","Study Phase","",4312,"",NA
"M20292814_jnr",3,"Read","LEASE","TOIL","Study2","U",46,50,"Study","Study Phase","",2147,"",NA
"M20292814_jnr",3,"Read","CHISEL","HAMMER","Study2","F",23,15,"Study","Study Phase","",1599,"",NA
"M20292814_jnr",3,"Read","ART","WOLF","Study2","U",38,38,"Study","Study Phase","",2507,"",NA
"M20292814_jnr",3,"Read","SUMMER","SNOW","Study2","M",6,16,"Study","Study Phase","",2169,"",NA
"M20292814_jnr",3,"Read","OVEN","BASKET","Study2","M",16,42,"Study","Study Phase","",3463,"",NA
"M20292814_jnr",3,"Read","VALLEY","PEAK","Study2","M",18,19,"Study","Study Phase","",2275,"",NA
"M20292814_jnr",3,"Read","SICK","HIDE","Study2","U",45,49,"Study","Study Phase","",2967,"",NA
"M20292814_jnr",3,"Read","MIRROR","CHILDREN","Study2","U",49,23,"Study","Study Phase","",2145,"",NA
"M20292814_jnr",3,"Read","RAKE","SEED","Study2","M",14,31,"Study","Study Phase","",1536,"",NA
"M20292814_jnr",3,"Read","DOCUMENT","PAPER","Study2","F",27,33,"Study","Study Phase","",1926,"",NA
"M20292814_jnr",3,"Read","WASP","BUG","Study2","F",34,9,"Study","Study Phase","",1413,"",NA
"M20292814_jnr",3,"Read","HEAVY","FEATHER","Study2","M",13,25,"Study","Study Phase","",1714,"",NA
"M20292814_jnr",3,"Read","BENCH","HORN","Study2","U",43,12,"Study","Study Phase","",1965,"",NA
"M20292814_jnr",3,"Read","CHOP","CUT","Study2","F",22,20,"Study","Study Phase","",2218,"",NA
"M20292814_jnr",3,"Read","RAZOR","MUSCLE","Study2","M",20,7,"Study","Study Phase","",1969,"",NA
"M20292814_jnr",3,"Read","STRONG","ACCIDENT","Study2","U",39,27,"Study","Study Phase","",2048,"",NA
"M20292814_jnr",3,"Read","CHERRY","RED","Study2","F",25,46,"Study","Study Phase","",1465,"",NA
"M20292814_jnr",3,"Read","NURSE","LAWYER","Study2","M",11,35,"Study","Study Phase","",2362,"",NA
"M20292814_jnr",3,"Read","HAPPY","CAR","Study2","U",37,8,"Study","Study Phase","",1378,"",NA
"M20292814_jnr",3,"Read","EYES","SMELL","Study2","M",10,11,"Study","Study Phase","",3998,"",NA
"M20292814_jnr",3,"Read","DIETARY","SACK","Study2","U",42,13,"Study","Study Phase","",2636,"",NA
"M20292814_jnr",3,"Read","PANTS","COLLAR","Study2","M",8,10,"Study","Study Phase","",2398,"",NA
"M20292814_jnr",3,"Read","SOAP","DRINK","Study2","M",12,22,"Study","Study Phase","",1631,"",NA
"M20292814_jnr",3,"Read","FEUD","FIGHT","Study2","F",31,18,"Study","Study Phase","",2733,"",NA
"M20292814_jnr",3,"Read","ARTERY","BRONZE","Study2","U",48,24,"Study","Study Phase","",2835,"",NA
"M20292814_jnr",3,"Read","REALITY","ISLAND","Study2","M",9,37,"Study","Study Phase","",2054,"",NA
"M20292814_jnr",3,"Read","SCHOOL","STOP","Study2","M",7,14,"Study","Study Phase","",1834,"",NA
"M20292814_jnr",3,"Read","LEAGUE","BASEBALL","Study2","F",29,48,"Study","Study Phase","",2035,"",NA
"M20292814_jnr",3,"Read","CHILL","COLD","Study2","F",32,30,"Study","Study Phase","",1783,"",NA
"M20302550BC",1,"Read","TREE","SYRUP","Study1","M",11,41,"Study","Study Phase","",916,"",NA
"M20302550BC",1,"Read","SCALP","HEAD","Study1","F",23,30,"Study","Study Phase","",1942,"",NA
"M20302550BC",1,"Read","VEHICLE","CHARM","Study1","U",40,21,"Study","Study Phase","",2382,"",NA
"M20302550BC",1,"Read","CRY","BOTTLE","Study1","M",16,46,"Study","Study Phase","",1455,"",NA
"M20302550BC",1,"Read","NAP","SLEEP","Study1","F",29,35,"Study","Study Phase","",1082,"",NA
"M20302550BC",1,"Read","KEYS","ROD","Study1","U",45,10,"Study","Study Phase","",1819,"",NA
"M20302550BC",1,"Read","CIRCLE","DANCE","Study1","M",13,34,"Study","Study Phase","",1091,"",NA
"M20302550BC",1,"Read","HORSE","WHEEL","Study1","M",14,19,"Study","Study Phase","",1151,"",NA
"M20302550BC",1,"Read","BEACH","BOX","Study1","M",7,8,"Study","Study Phase","",771,"",NA
"M20302550BC",1,"Read","SHELL","SHAKE","Study1","U",43,27,"Study","Study Phase","",1537,"",NA
"M20302550BC",1,"Read","MEAT","KEYS","Study1","U",41,42,"Study","Study Phase","",2620,"",NA
"M20302550BC",1,"Read","TEMPERATURE","MORNING","Study1","U",48,45,"Study","Study Phase","",3170,"",NA
"M20302550BC",1,"Read","TOOTH","HAIR","Study1","M",19,51,"Study","Study Phase","",4085,"",NA
"M20302550BC",1,"Read","ROOT","PLANT","Study1","F",25,43,"Study","Study Phase","",2215,"",NA
"M20302550BC",1,"Read","CAKE","HAND","Study1","U",49,47,"Study","Study Phase","",2950,"",NA
"M20302550BC",1,"Read","WORD","SENTENCE","Study1","F",27,28,"Study","Study Phase","",1990,"",NA
"M20302550BC",1,"Read","SIP","DRINK","Study1","F",32,18,"Study","Study Phase","",2084,"",NA
"M20302550BC",1,"Read","BIRTHDAY","PIE","Study1","M",9,40,"Study","Study Phase","",3353,"",NA
"M20302550BC",1,"Read","AFFECTION","LOVE","Study1","F",31,32,"Study","Study Phase","",2199,"",NA
"M20302550BC",1,"Read","FUZZY","BANG","Study1","U",50,36,"Study","Study Phase","",3340,"",NA
"M20302550BC",1,"Read","CRACKLE","ELECTION","Study1","U",39,29,"Study","Study Phase","",3862,"",NA
"M20302550BC",1,"Read","ORCHID","FLOWER","Study1","F",34,25,"Study","Study Phase","",2273,"",NA
"M20302550BC",1,"Read","CEILING","CARPET","Study1","M",15,44,"Study","Study Phase","",5010,"",NA
"M20302550BC",1,"Read","WAGE","MONEY","Study1","F",22,31,"Study","Study Phase","",4373,"",NA
"M20302550BC",1,"Read","WEDDING","FINGER","Study1","M",17,22,"Study","Study Phase","",1359,"",NA
"M20302550BC",1,"Read","SOON","BELT","Study1","U",46,9,"Study","Study Phase","",2031,"",NA
"M20302550BC",1,"Read","BAT","BOUNCE","Study1","M",12,37,"Study","Study Phase","",1206,"",NA
"M20302550BC",1,"Read","HARD","COTTON","Study1","M",20,11,"Study","Study Phase","",1811,"",NA
"M20302550BC",1,"Read","CREDIT","CARD","Study1","F",33,39,"Study","Study Phase","",1135,"",NA
"M20302550BC",1,"Read","MULE","DONKEY","Study1","F",24,20,"Study","Study Phase","",1427,"",NA
"M20302550BC",1,"Read","STRETCH","CLOTH","Study1","U",37,26,"Study","Study Phase","",1475,"",NA
"M20302550BC",1,"Read","LITTER","TRASH","Study1","F",21,13,"Study","Study Phase","",1441,"",NA
"M20302550BC",1,"Read","MULE","DONKEY","Study1","F",30,49,"Study","Study Phase","",807,"",NA
"M20302550BC",1,"Read","WAR","QUIET","Study1","M",8,33,"Study","Study Phase","",847,"",NA
"M20302550BC",1,"Read","MIRROR","MAROON","Study1","U",36,23,"Study","Study Phase","",1365,"",NA
"M20302550BC",1,"Read","SWAN","BIRD","Study1","F",26,15,"Study","Study Phase","",1595,"",NA
"M20302550BC",1,"Read","SIGN","TICK","Study1","U",47,7,"Study","Study Phase","",1646,"",NA
"M20302550BC",1,"Read","TUNA","FISH","Study1","F",35,38,"Study","Study Phase","",1831,"",NA
"M20302550BC",1,"Read","MAZE","PHONE","Study1","U",42,50,"Study","Study Phase","",1543,"",NA
"M20302550BC",1,"Read","DAY","DARK","Study1","M",18,24,"Study","Study Phase","",2024,"",NA
"M20302550BC",1,"Read","GIVE","STEAK","Study1","U",38,48,"Study","Study Phase","",1704,"",NA
"M20302550BC",1,"Read","ROUGH","SILK","Study1","M",10,12,"Study","Study Phase","",1514,"",NA
"M20302550BC",1,"Read","LION","STRIPES","Study1","M",6,16,"Study","Study Phase","",1274,"",NA
"M20302550BC",1,"Read","LISTEN","FICTION","Study1","U",44,17,"Study","Study Phase","",1062,"",NA
"M20302550BC",1,"Read","HYGIENE","CLEAN","Study1","F",28,14,"Study","Study Phase","",1372,"",NA
"M20306018_AGR",1,"Read","CREDIT","CARD","Study1","F",33,20,"Study","Study Phase","",1359,"",NA
"M20306018_AGR",1,"Read","SIP","DRINK","Study1","F",32,19,"Study","Study Phase","",1381,"",NA
"M20306018_AGR",1,"Read","SOON","BELT","Study1","U",46,8,"Study","Study Phase","",2567,"",NA
"M20306018_AGR",1,"Read","BEACH","BOX","Study1","M",7,27,"Study","Study Phase","",2524,"",NA
"M20306018_AGR",1,"Read","VEHICLE","CHARM","Study1","U",40,23,"Study","Study Phase","",1863,"",NA
"M20306018_AGR",1,"Read","CIRCLE","DANCE","Study1","M",13,29,"Study","Study Phase","",1516,"",NA
"M20306018_AGR",1,"Read","AFFECTION","LOVE","Study1","F",31,22,"Study","Study Phase","",3154,"",NA
"M20306018_AGR",1,"Read","DAY","DARK","Study1","M",18,38,"Study","Study Phase","",1455,"",NA
"M20306018_AGR",1,"Read","ORCHID","FLOWER","Study1","F",34,48,"Study","Study Phase","",3008,"",NA
"M20306018_AGR",1,"Read","CRY","BOTTLE","Study1","M",16,13,"Study","Study Phase","",1103,"",NA
"M20306018_AGR",1,"Read","HYGIENE","CLEAN","Study1","F",28,51,"Study","Study Phase","",3628,"",NA
"M20306018_AGR",1,"Read","LION","STRIPES","Study1","M",6,49,"Study","Study Phase","",1545,"",NA
"M20306018_AGR",1,"Read","BAT","BOUNCE","Study1","M",12,21,"Study","Study Phase","",2913,"",NA
"M20306018_AGR",1,"Read","CRACKLE","ELECTION","Study1","U",39,26,"Study","Study Phase","",6387,"",NA
"M20306018_AGR",1,"Read","NAP","SLEEP","Study1","F",29,10,"Study","Study Phase","",1387,"",NA
"M20306018_AGR",1,"Read","CAKE","HAND","Study1","U",49,15,"Study","Study Phase","",4480,"",NA
"M20306018_AGR",1,"Read","STRETCH","CLOTH","Study1","U",37,14,"Study","Study Phase","",7228,"",NA
"M20306018_AGR",1,"Read","FUZZY","BANG","Study1","U",50,32,"Study","Study Phase","",3491,"",NA
"M20306018_AGR",1,"Read","LISTEN","FICTION","Study1","U",44,42,"Study","Study Phase","",4445,"",NA
"M20306018_AGR",1,"Read","WAGE","MONEY","Study1","F",22,37,"Study","Study Phase","",1978,"",NA
"M20306018_AGR",1,"Read","SIGN","TICK","Study1","U",47,46,"Study","Study Phase","",3392,"",NA
"M20306018_AGR",1,"Read","WAR","QUIET","Study1","M",8,33,"Study","Study Phase","",1810,"",NA
"M20306018_AGR",1,"Read","WEDDING","FINGER","Study1","M",17,34,"Study","Study Phase","",5586,"",NA
"M20306018_AGR",1,"Read","MEAT","KEYS","Study1","U",41,12,"Study","Study Phase","",1645,"",NA
"M20306018_AGR",1,"Read","KEYS","ROD","Study1","U",45,11,"Study","Study Phase","",3076,"",NA
"M20306018_AGR",1,"Read","SCALP","HEAD","Study1","F",23,50,"Study","Study Phase","",4484,"",NA
"M20306018_AGR",1,"Read","SWAN","BIRD","Study1","F",26,36,"Study","Study Phase","",1909,"",NA
"M20306018_AGR",1,"Read","HORSE","WHEEL","Study1","M",14,16,"Study","Study Phase","",2138,"",NA
"M20306018_AGR",1,"Read","MULE","DONKEY","Study1","F",30,24,"Study","Study Phase","",3124,"",NA
"M20306018_AGR",1,"Read","ROOT","PLANT","Study1","F",25,7,"Study","Study Phase","",3709,"",NA
"M20306018_AGR",1,"Read","GIVE","STEAK","Study1","U",38,18,"Study","Study Phase","",4109,"",NA
"M20306018_AGR",1,"Read","MIRROR","MAROON","Study1","U",36,41,"Study","Study Phase","",2043,"",NA
"M20306018_AGR",1,"Read","TOOTH","HAIR","Study1","M",19,28,"Study","Study Phase","",2292,"",NA
"M20306018_AGR",1,"Read","LITTER","TRASH","Study1","F",21,39,"Study","Study Phase","",1723,"",NA
"M20306018_AGR",1,"Read","MAZE","PHONE","Study1","U",42,25,"Study","Study Phase","",1540,"",NA
"M20306018_AGR",1,"Read","TEMPERATURE","MORNING","Study1","U",48,31,"Study","Study Phase","",2145,"",NA
"M20306018_AGR",1,"Read","MULE","DONKEY","Study1","F",24,43,"Study","Study Phase","",2158,"",NA
"M20306018_AGR",1,"Read","TREE","SYRUP","Study1","M",11,17,"Study","Study Phase","",2008,"",NA
"M20306018_AGR",1,"Read","HARD","COTTON","Study1","M",20,47,"Study","Study Phase","",2807,"",NA
"M20306018_AGR",1,"Read","WORD","SENTENCE","Study1","F",27,40,"Study","Study Phase","",2179,"",NA
"M20306018_AGR",1,"Read","BIRTHDAY","PIE","Study1","M",9,30,"Study","Study Phase","",2361,"",NA
"M20306018_AGR",1,"Read","ROUGH","SILK","Study1","M",10,44,"Study","Study Phase","",2066,"",NA
"M20306018_AGR",1,"Read","CEILING","CARPET","Study1","M",15,35,"Study","Study Phase","",2492,"",NA
"M20306018_AGR",1,"Read","SHELL","SHAKE","Study1","U",43,9,"Study","Study Phase","",1943,"",NA
"M20306018_AGR",1,"Read","TUNA","FISH","Study1","F",35,45,"Study","Study Phase","",1562,"",NA
"M20306803_niw",3,"Read","LEASE","TOIL","Study2","U",46,34,"Study","Study Phase","",4939,"",NA
"M20306803_niw",3,"Read","BOTH","OUNCE","Study2","U",47,22,"Study","Study Phase","",4279,"",NA
"M20306803_niw",3,"Read","CHILL","COLD","Study2","F",32,42,"Study","Study Phase","",3586,"",NA
"M20306803_niw",3,"Read","KING","VASE","Study2","U",36,23,"Study","Study Phase","",4872,"",NA
"M20306803_niw",3,"Read","RAKE","SEED","Study2","M",14,18,"Study","Study Phase","",3947,"",NA
"M20306803_niw",3,"Read","CHISEL","HAMMER","Study2","F",23,48,"Study","Study Phase","",4896,"",NA
"M20306803_niw",3,"Read","INCENSE","SMELL","Study2","F",28,47,"Study","Study Phase","",5501,"",NA
"M20306803_niw",3,"Read","CHERRY","RED","Study2","F",25,9,"Study","Study Phase","",3110,"",NA
"M20306803_niw",3,"Read","MIRROR","CHILDREN","Study2","U",49,8,"Study","Study Phase","",5652,"",NA
"M20306803_niw",3,"Read","CACTUS","PLANT","Study2","F",21,10,"Study","Study Phase","",6929,"",NA
"M20306803_niw",3,"Read","STRONG","ACCIDENT","Study2","U",39,50,"Study","Study Phase","",3230,"",NA
"M20306803_niw",3,"Read","BENCH","HORN","Study2","U",43,27,"Study","Study Phase","",3975,"",NA
"M20306803_niw",3,"Read","DOCUMENT","PAPER","Study2","F",27,30,"Study","Study Phase","",3615,"",NA
"M20306803_niw",3,"Read","SCHOOL","STOP","Study2","M",7,16,"Study","Study Phase","",3508,"",NA
"M20306803_niw",3,"Read","ART","WOLF","Study2","U",38,19,"Study","Study Phase","",4104,"",NA
"M20306803_niw",3,"Read","CHOP","CUT","Study2","F",22,43,"Study","Study Phase","",4073,"",NA
"M20306803_niw",3,"Read","HORNET","STING","Study2","F",30,24,"Study","Study Phase","",4871,"",NA
"M20306803_niw",3,"Read","PANTS","COLLAR","Study2","M",8,38,"Study","Study Phase","",4993,"",NA
"M20306803_niw",3,"Read","DEATH","BUSINESS","Study2","U",44,36,"Study","Study Phase","",3919,"",NA
"M20306803_niw",3,"Read","REALITY","ISLAND","Study2","M",9,51,"Study","Study Phase","",6230,"",NA
"M20306803_niw",3,"Read","HAPPY","CAR","Study2","U",37,33,"Study","Study Phase","",4110,"",NA
"M20306803_niw",3,"Read","BRIDGE","WATER","Study2","F",35,39,"Study","Study Phase","",3436,"",NA
"M20306803_niw",3,"Read","HEAVY","FEATHER","Study2","M",13,45,"Study","Study Phase","",6148,"",NA
"M20306803_niw",3,"Read","BLAZE","FIRE","Study2","F",26,14,"Study","Study Phase","",4550,"",NA
"M20306803_niw",3,"Read","TRAP","CAVE","Study2","M",15,41,"Study","Study Phase","",3856,"",NA
"M20306803_niw",3,"Read","ARTERY","BRONZE","Study2","U",48,13,"Study","Study Phase","",3872,"",NA
"M20306803_niw",3,"Read","LEAGUE","BASEBALL","Study2","F",29,17,"Study","Study Phase","",4623,"",NA
"M20306803_niw",3,"Read","SICK","HIDE","Study2","U",45,35,"Study","Study Phase","",3296,"",NA
"M20306803_niw",3,"Read","CASH","LEG","Study2","U",50,7,"Study","Study Phase","",5135,"",NA
"M20306803_niw",3,"Read","PUSH","CLUTTER","Study2","U",41,49,"Study","Study Phase","",7055,"",NA
"M20306803_niw",3,"Read","WINDOW","KNOB","Study2","M",19,31,"Study","Study Phase","",3997,"",NA
"M20306803_niw",3,"Read","EYES","SMELL","Study2","M",10,40,"Study","Study Phase","",3789,"",NA
"M20306803_niw",3,"Read","VALLEY","PEAK","Study2","M",18,44,"Study","Study Phase","",8609,"",NA
"M20306803_niw",3,"Read","FEUD","FIGHT","Study2","F",31,37,"Study","Study Phase","",3373,"",NA
"M20306803_niw",3,"Read","DIETARY","SACK","Study2","U",42,12,"Study","Study Phase","",3875,"",NA
"M20306803_niw",3,"Read","RAZOR","MUSCLE","Study2","M",20,20,"Study","Study Phase","",7699,"",NA
"M20306803_niw",3,"Read","ATTIRE","CLOTHES","Study2","F",24,46,"Study","Study Phase","",2989,"",NA
"M20306803_niw",3,"Read","HERD","COW","Study2","F",33,26,"Study","Study Phase","",3964,"",NA
"M20306803_niw",3,"Read","SUMMER","SNOW","Study2","M",6,11,"Study","Study Phase","",5276,"",NA
"M20306803_niw",3,"Read","SUGAR","RIDDLE","Study2","U",40,15,"Study","Study Phase","",4112,"",NA
"M20306803_niw",3,"Read","OVEN","BASKET","Study2","M",16,32,"Study","Study Phase","",4171,"",NA
"M20306803_niw",3,"Read","WASP","BUG","Study2","F",34,29,"Study","Study Phase","",5059,"",NA
"M20306803_niw",3,"Read","GRILL","THIGH","Study2","M",17,21,"Study","Study Phase","",10379,"",NA
"M20306803_niw",3,"Read","NURSE","LAWYER","Study2","M",11,25,"Study","Study Phase","",11943,"",NA
"M20306803_niw",3,"Read","SOAP","DRINK","Study2","M",12,28,"Study","Study Phase","",4352,"",NA
"m20307822",3,"Read","ART","WOLF","Study2","U",38,27,"Study","Study Phase","",2341,"",NA
"m20307822",3,"Read","INCENSE","SMELL","Study2","F",28,32,"Study","Study Phase","",2065,"",NA
"m20307822",3,"Read","MIRROR","CHILDREN","Study2","U",49,30,"Study","Study Phase","",2240,"",NA
"m20307822",3,"Read","ATTIRE","CLOTHES","Study2","F",24,8,"Study","Study Phase","",1805,"",NA
"m20307822",3,"Read","PUSH","CLUTTER","Study2","U",41,34,"Study","Study Phase","",2600,"",NA
"m20307822",3,"Read","STRONG","ACCIDENT","Study2","U",39,7,"Study","Study Phase","",1653,"",NA
"m20307822",3,"Read","TRAP","CAVE","Study2","M",15,24,"Study","Study Phase","",2401,"",NA
"m20307822",3,"Read","SUMMER","SNOW","Study2","M",6,45,"Study","Study Phase","",1461,"",NA
"m20307822",3,"Read","SUGAR","RIDDLE","Study2","U",40,49,"Study","Study Phase","",3737,"",NA
"m20307822",3,"Read","WASP","BUG","Study2","F",34,44,"Study","Study Phase","",1977,"",NA
"m20307822",3,"Read","DOCUMENT","PAPER","Study2","F",27,39,"Study","Study Phase","",1471,"",NA
"m20307822",3,"Read","RAKE","SEED","Study2","M",14,51,"Study","Study Phase","",1818,"",NA
"m20307822",3,"Read","HEAVY","FEATHER","Study2","M",13,28,"Study","Study Phase","",1854,"",NA
"m20307822",3,"Read","HERD","COW","Study2","F",33,26,"Study","Study Phase","",1577,"",NA
"m20307822",3,"Read","KING","VASE","Study2","U",36,41,"Study","Study Phase","",1591,"",NA
"m20307822",3,"Read","BLAZE","FIRE","Study2","F",26,9,"Study","Study Phase","",1409,"",NA
"m20307822",3,"Read","REALITY","ISLAND","Study2","M",9,33,"Study","Study Phase","",2256,"",NA
"m20307822",3,"Read","SCHOOL","STOP","Study2","M",7,47,"Study","Study Phase","",2782,"",NA
"m20307822",3,"Read","DIETARY","SACK","Study2","U",42,12,"Study","Study Phase","",2246,"",NA
"m20307822",3,"Read","EYES","SMELL","Study2","M",10,50,"Study","Study Phase","",1921,"",NA
"m20307822",3,"Read","LEASE","TOIL","Study2","U",46,18,"Study","Study Phase","",1951,"",NA
"m20307822",3,"Read","FEUD","FIGHT","Study2","F",31,35,"Study","Study Phase","",1491,"",NA
"m20307822",3,"Read","WINDOW","KNOB","Study2","M",19,42,"Study","Study Phase","",1399,"",NA
"m20307822",3,"Read","CACTUS","PLANT","Study2","F",21,31,"Study","Study Phase","",791,"",NA
"m20307822",3,"Read","BRIDGE","WATER","Study2","F",35,15,"Study","Study Phase","",604,"",NA
"m20307822",3,"Read","BENCH","HORN","Study2","U",43,11,"Study","Study Phase","",1172,"",NA
"m20307822",3,"Read","OVEN","BASKET","Study2","M",16,13,"Study","Study Phase","",761,"",NA
"m20307822",3,"Read","NURSE","LAWYER","Study2","M",11,20,"Study","Study Phase","",1974,"",NA
"m20307822",3,"Read","CHILL","COLD","Study2","F",32,17,"Study","Study Phase","",1780,"",NA
"m20307822",3,"Read","CASH","LEG","Study2","U",50,43,"Study","Study Phase","",1164,"",NA
"m20307822",3,"Read","SICK","HIDE","Study2","U",45,36,"Study","Study Phase","",2229,"",NA
"m20307822",3,"Read","CHISEL","HAMMER","Study2","F",23,14,"Study","Study Phase","",2172,"",NA
"m20307822",3,"Read","DEATH","BUSINESS","Study2","U",44,37,"Study","Study Phase","",581,"",NA
"m20307822",3,"Read","BOTH","OUNCE","Study2","U",47,48,"Study","Study Phase","",715,"",NA
"m20307822",3,"Read","VALLEY","PEAK","Study2","M",18,16,"Study","Study Phase","",752,"",NA
"m20307822",3,"Read","ARTERY","BRONZE","Study2","U",48,46,"Study","Study Phase","",609,"",NA
"m20307822",3,"Read","HAPPY","CAR","Study2","U",37,22,"Study","Study Phase","",757,"",NA
"m20307822",3,"Read","HORNET","STING","Study2","F",30,38,"Study","Study Phase","",511,"",NA
"m20307822",3,"Read","PANTS","COLLAR","Study2","M",8,40,"Study","Study Phase","",727,"",NA
"m20307822",3,"Read","RAZOR","MUSCLE","Study2","M",20,21,"Study","Study Phase","",666,"",NA
"m20307822",3,"Read","SOAP","DRINK","Study2","M",12,10,"Study","Study Phase","",638,"",NA
"m20307822",3,"Read","CHOP","CUT","Study2","F",22,19,"Study","Study Phase","",663,"",NA
"m20307822",3,"Read","GRILL","THIGH","Study2","M",17,29,"Study","Study Phase","",737,"",NA
"m20307822",3,"Read","LEAGUE","BASEBALL","Study2","F",29,23,"Study","Study Phase","",524,"",NA
"m20307822",3,"Read","CHERRY","RED","Study2","F",25,25,"Study","Study Phase","",562,"",NA
"M20308130",3,"Read","REALITY","ISLAND","Study2","M",9,41,"Study","Study Phase","",1320,"",NA
"M20308130",3,"Read","CASH","LEG","Study2","U",50,21,"Study","Study Phase","",2489,"",NA
"M20308130",3,"Read","SICK","HIDE","Study2","U",45,17,"Study","Study Phase","",1851,"",NA
"M20308130",3,"Read","LEASE","TOIL","Study2","U",46,14,"Study","Study Phase","",1470,"",NA
"M20308130",3,"Read","DEATH","BUSINESS","Study2","U",44,24,"Study","Study Phase","",2984,"",NA
"M20308130",3,"Read","ATTIRE","CLOTHES","Study2","F",24,46,"Study","Study Phase","",1154,"",NA
"M20308130",3,"Read","LEAGUE","BASEBALL","Study2","F",29,43,"Study","Study Phase","",1277,"",NA
"M20308130",3,"Read","GRILL","THIGH","Study2","M",17,23,"Study","Study Phase","",15374,"",NA
"M20308130",3,"Read","HAPPY","CAR","Study2","U",37,45,"Study","Study Phase","",2352,"",NA
"M20308130",3,"Read","HEAVY","FEATHER","Study2","M",13,20,"Study","Study Phase","",3512,"",NA
"M20308130",3,"Read","MIRROR","CHILDREN","Study2","U",49,42,"Study","Study Phase","",2366,"",NA
"M20308130",3,"Read","TRAP","CAVE","Study2","M",15,12,"Study","Study Phase","",1535,"",NA
"M20308130",3,"Read","NURSE","LAWYER","Study2","M",11,26,"Study","Study Phase","",1257,"",NA
"M20308130",3,"Read","RAKE","SEED","Study2","M",14,51,"Study","Study Phase","",6810,"",NA
"M20308130",3,"Read","BLAZE","FIRE","Study2","F",26,19,"Study","Study Phase","",959,"",NA
"M20308130",3,"Read","FEUD","FIGHT","Study2","F",31,15,"Study","Study Phase","",1190,"",NA
"M20308130",3,"Read","KING","VASE","Study2","U",36,25,"Study","Study Phase","",1634,"",NA
"M20308130",3,"Read","DIETARY","SACK","Study2","U",42,27,"Study","Study Phase","",1493,"",NA
"M20308130",3,"Read","SUMMER","SNOW","Study2","M",6,32,"Study","Study Phase","",1120,"",NA
"M20308130",3,"Read","CHOP","CUT","Study2","F",22,47,"Study","Study Phase","",1075,"",NA
"M20308130",3,"Read","PANTS","COLLAR","Study2","M",8,38,"Study","Study Phase","",1811,"",NA
"M20308130",3,"Read","SCHOOL","STOP","Study2","M",7,44,"Study","Study Phase","",993,"",NA
"M20308130",3,"Read","SOAP","DRINK","Study2","M",12,28,"Study","Study Phase","",1487,"",NA
"M20308130",3,"Read","HERD","COW","Study2","F",33,8,"Study","Study Phase","",2175,"",NA
"M20308130",3,"Read","BRIDGE","WATER","Study2","F",35,18,"Study","Study Phase","",1160,"",NA
"M20308130",3,"Read","BOTH","OUNCE","Study2","U",47,48,"Study","Study Phase","",1869,"",NA
"M20308130",3,"Read","CACTUS","PLANT","Study2","F",21,31,"Study","Study Phase","",1762,"",NA
"M20308130",3,"Read","WASP","BUG","Study2","F",34,22,"Study","Study Phase","",2349,"",NA
"M20308130",3,"Read","DOCUMENT","PAPER","Study2","F",27,39,"Study","Study Phase","",1685,"",NA
"M20308130",3,"Read","BENCH","HORN","Study2","U",43,10,"Study","Study Phase","",986,"",NA
"M20308130",3,"Read","HORNET","STING","Study2","F",30,11,"Study","Study Phase","",1085,"",NA
"M20308130",3,"Read","WINDOW","KNOB","Study2","M",19,16,"Study","Study Phase","",1138,"",NA
"M20308130",3,"Read","CHERRY","RED","Study2","F",25,36,"Study","Study Phase","",1424,"",NA
"M20308130",3,"Read","RAZOR","MUSCLE","Study2","M",20,13,"Study","Study Phase","",1215,"",NA
"M20308130",3,"Read","CHILL","COLD","Study2","F",32,33,"Study","Study Phase","",2549,"",NA
"M20308130",3,"Read","VALLEY","PEAK","Study2","M",18,7,"Study","Study Phase","",1087,"",NA
"M20308130",3,"Read","ARTERY","BRONZE","Study2","U",48,34,"Study","Study Phase","",2579,"",NA
"M20308130",3,"Read","PUSH","CLUTTER","Study2","U",41,50,"Study","Study Phase","",3087,"",NA
"M20308130",3,"Read","ART","WOLF","Study2","U",38,9,"Study","Study Phase","",1660,"",NA
"M20308130",3,"Read","SUGAR","RIDDLE","Study2","U",40,30,"Study","Study Phase","",3669,"",NA
"M20308130",3,"Read","EYES","SMELL","Study2","M",10,35,"Study","Study Phase","",4123,"",NA
"M20308130",3,"Read","INCENSE","SMELL","Study2","F",28,49,"Study","Study Phase","",2236,"",NA
"M20308130",3,"Read","STRONG","ACCIDENT","Study2","U",39,29,"Study","Study Phase","",1571,"",NA
"M20308130",3,"Read","CHISEL","HAMMER","Study2","F",23,37,"Study","Study Phase","",1512,"",NA
"M20308130",3,"Read","OVEN","BASKET","Study2","M",16,40,"Study","Study Phase","",946,"",NA
"M20308293_jml",3,"Read","HEAVY","FEATHER","Study2","M",13,50,"Study","Study Phase","",1072,"",NA
"M20308293_jml",3,"Read","CASH","LEG","Study2","U",50,19,"Study","Study Phase","",4003,"",NA
"M20308293_jml",3,"Read","EYES","SMELL","Study2","M",10,8,"Study","Study Phase","",2463,"",NA
"M20308293_jml",3,"Read","PUSH","CLUTTER","Study2","U",41,42,"Study","Study Phase","",5567,"",NA
"M20308293_jml",3,"Read","ARTERY","BRONZE","Study2","U",48,28,"Study","Study Phase","",2043,"",NA
"M20308293_jml",3,"Read","LEASE","TOIL","Study2","U",46,35,"Study","Study Phase","",1944,"",NA
"M20308293_jml",3,"Read","INCENSE","SMELL","Study2","F",28,37,"Study","Study Phase","",1654,"",NA
"M20308293_jml",3,"Read","KING","VASE","Study2","U",36,27,"Study","Study Phase","",3347,"",NA
"M20308293_jml",3,"Read","REALITY","ISLAND","Study2","M",9,38,"Study","Study Phase","",2000,"",NA
"M20308293_jml",3,"Read","CACTUS","PLANT","Study2","F",21,40,"Study","Study Phase","",1051,"",NA
"M20308293_jml",3,"Read","HERD","COW","Study2","F",33,41,"Study","Study Phase","",1089,"",NA
"M20308293_jml",3,"Read","RAKE","SEED","Study2","M",14,12,"Study","Study Phase","",1154,"",NA
"M20308293_jml",3,"Read","CHILL","COLD","Study2","F",32,49,"Study","Study Phase","",1049,"",NA
"M20308293_jml",3,"Read","FEUD","FIGHT","Study2","F",31,7,"Study","Study Phase","",970,"",NA
"M20308293_jml",3,"Read","DIETARY","SACK","Study2","U",42,14,"Study","Study Phase","",1881,"",NA
"M20308293_jml",3,"Read","SUMMER","SNOW","Study2","M",6,25,"Study","Study Phase","",834,"",NA
"M20308293_jml",3,"Read","BENCH","HORN","Study2","U",43,33,"Study","Study Phase","",1770,"",NA
"M20308293_jml",3,"Read","GRILL","THIGH","Study2","M",17,10,"Study","Study Phase","",923,"",NA
"M20308293_jml",3,"Read","RAZOR","MUSCLE","Study2","M",20,48,"Study","Study Phase","",725,"",NA
"M20308293_jml",3,"Read","WINDOW","KNOB","Study2","M",19,44,"Study","Study Phase","",1171,"",NA
"M20308293_jml",3,"Read","CHERRY","RED","Study2","F",25,47,"Study","Study Phase","",916,"",NA
"M20308293_jml",3,"Read","ATTIRE","CLOTHES","Study2","F",24,9,"Study","Study Phase","",1195,"",NA
"M20308293_jml",3,"Read","VALLEY","PEAK","Study2","M",18,17,"Study","Study Phase","",1000,"",NA
"M20308293_jml",3,"Read","CHOP","CUT","Study2","F",22,16,"Study","Study Phase","",1090,"",NA
"M20308293_jml",3,"Read","ART","WOLF","Study2","U",38,26,"Study","Study Phase","",923,"",NA
"M20308293_jml",3,"Read","DOCUMENT","PAPER","Study2","F",27,32,"Study","Study Phase","",2312,"",NA
"M20308293_jml",3,"Read","MIRROR","CHILDREN","Study2","U",49,34,"Study","Study Phase","",2248,"",NA
"M20308293_jml",3,"Read","OVEN","BASKET","Study2","M",16,24,"Study","Study Phase","",2111,"",NA
"M20308293_jml",3,"Read","STRONG","ACCIDENT","Study2","U",39,51,"Study","Study Phase","",925,"",NA
"M20308293_jml",3,"Read","HAPPY","CAR","Study2","U",37,45,"Study","Study Phase","",852,"",NA
"M20308293_jml",3,"Read","PANTS","COLLAR","Study2","M",8,13,"Study","Study Phase","",1107,"",NA
"M20308293_jml",3,"Read","WASP","BUG","Study2","F",34,22,"Study","Study Phase","",2349,"",NA
"M20308293_jml",3,"Read","NURSE","LAWYER","Study2","M",11,36,"Study","Study Phase","",1330,"",NA
"M20308293_jml",3,"Read","HORNET","STING","Study2","F",30,21,"Study","Study Phase","",1168,"",NA
"M20308293_jml",3,"Read","CHISEL","HAMMER","Study2","F",23,18,"Study","Study Phase","",1190,"",NA
"M20308293_jml",3,"Read","SUGAR","RIDDLE","Study2","U",40,46,"Study","Study Phase","",953,"",NA
"M20308293_jml",3,"Read","SICK","HIDE","Study2","U",45,43,"Study","Study Phase","",810,"",NA
"M20308293_jml",3,"Read","TRAP","CAVE","Study2","M",15,23,"Study","Study Phase","",1933,"",NA
"M20308293_jml",3,"Read","BLAZE","FIRE","Study2","F",26,29,"Study","Study Phase","",5081,"",NA
"M20308293_jml",3,"Read","SOAP","DRINK","Study2","M",12,20,"Study","Study Phase","",790,"",NA
"M20308293_jml",3,"Read","LEAGUE","BASEBALL","Study2","F",29,30,"Study","Study Phase","",935,"",NA
"M20308293_jml",3,"Read","BRIDGE","WATER","Study2","F",35,11,"Study","Study Phase","",647,"",NA
"M20308293_jml",3,"Read","SCHOOL","STOP","Study2","M",7,15,"Study","Study Phase","",577,"",NA
"M20308293_jml",3,"Read","BOTH","OUNCE","Study2","U",47,31,"Study","Study Phase","",922,"",NA
"M20308293_jml",3,"Read","DEATH","BUSINESS","Study2","U",44,39,"Study","Study Phase","",779,"",NA
"M20310854",3,"Read","PUSH","CLUTTER","Study2","U",41,22,"Study","Study Phase","",3190,"",NA
"M20310854",3,"Read","LEAGUE","BASEBALL","Study2","F",29,7,"Study","Study Phase","",1094,"",NA
"M20310854",3,"Read","ART","WOLF","Study2","U",38,47,"Study","Study Phase","",2152,"",NA
"M20310854",3,"Read","PANTS","COLLAR","Study2","M",8,14,"Study","Study Phase","",3037,"",NA
"M20310854",3,"Read","SCHOOL","STOP","Study2","M",7,16,"Study","Study Phase","",2876,"",NA
"M20310854",3,"Read","BENCH","HORN","Study2","U",43,35,"Study","Study Phase","",3386,"",NA
"M20310854",3,"Read","CHERRY","RED","Study2","F",25,49,"Study","Study Phase","",1109,"",NA
"M20310854",3,"Read","BRIDGE","WATER","Study2","F",35,23,"Study","Study Phase","",1961,"",NA
"M20310854",3,"Read","STRONG","ACCIDENT","Study2","U",39,48,"Study","Study Phase","",3706,"",NA
"M20310854",3,"Read","TRAP","CAVE","Study2","M",15,13,"Study","Study Phase","",1552,"",NA
"M20310854",3,"Read","KING","VASE","Study2","U",36,20,"Study","Study Phase","",4213,"",NA
"M20310854",3,"Read","WINDOW","KNOB","Study2","M",19,21,"Study","Study Phase","",4879,"",NA
"M20310854",3,"Read","EYES","SMELL","Study2","M",10,41,"Study","Study Phase","",2743,"",NA
"M20310854",3,"Read","LEASE","TOIL","Study2","U",46,25,"Study","Study Phase","",6029,"",NA
"M20310854",3,"Read","HERD","COW","Study2","F",33,39,"Study","Study Phase","",3551,"",NA
"M20310854",3,"Read","CHILL","COLD","Study2","F",32,44,"Study","Study Phase","",2565,"",NA
"M20310854",3,"Read","VALLEY","PEAK","Study2","M",18,17,"Study","Study Phase","",2040,"",NA
"M20310854",3,"Read","GRILL","THIGH","Study2","M",17,18,"Study","Study Phase","",1999,"",NA
"M20310854",3,"Read","HEAVY","FEATHER","Study2","M",13,27,"Study","Study Phase","",2948,"",NA
"M20310854",3,"Read","SICK","HIDE","Study2","U",45,42,"Study","Study Phase","",3059,"",NA
"M20310854",3,"Read","ATTIRE","CLOTHES","Study2","F",24,19,"Study","Study Phase","",4281,"",NA
"M20310854",3,"Read","CHISEL","HAMMER","Study2","F",23,45,"Study","Study Phase","",1930,"",NA
"M20310854",3,"Read","NURSE","LAWYER","Study2","M",11,10,"Study","Study Phase","",1645,"",NA
"M20310854",3,"Read","DEATH","BUSINESS","Study2","U",44,30,"Study","Study Phase","",3301,"",NA
"M20310854",3,"Read","DIETARY","SACK","Study2","U",42,50,"Study","Study Phase","",3930,"",NA
"M20310854",3,"Read","SUGAR","RIDDLE","Study2","U",40,37,"Study","Study Phase","",3268,"",NA
"M20310854",3,"Read","WASP","BUG","Study2","F",34,51,"Study","Study Phase","",970,"",NA
"M20310854",3,"Read","BOTH","OUNCE","Study2","U",47,36,"Study","Study Phase","",2892,"",NA
"M20310854",3,"Read","SOAP","DRINK","Study2","M",12,33,"Study","Study Phase","",6142,"",NA
"M20310854",3,"Read","INCENSE","SMELL","Study2","F",28,11,"Study","Study Phase","",6102,"",NA
"M20310854",3,"Read","MIRROR","CHILDREN","Study2","U",49,40,"Study","Study Phase","",1967,"",NA
"M20310854",3,"Read","ARTERY","BRONZE","Study2","U",48,31,"Study","Study Phase","",2934,"",NA
"M20310854",3,"Read","FEUD","FIGHT","Study2","F",31,26,"Study","Study Phase","",2908,"",NA
"M20310854",3,"Read","HAPPY","CAR","Study2","U",37,46,"Study","Study Phase","",4516,"",NA
"M20310854",3,"Read","DOCUMENT","PAPER","Study2","F",27,29,"Study","Study Phase","",1472,"",NA
"M20310854",3,"Read","HORNET","STING","Study2","F",30,28,"Study","Study Phase","",1924,"",NA
"M20310854",3,"Read","CACTUS","PLANT","Study2","F",21,34,"Study","Study Phase","",1277,"",NA
"M20310854",3,"Read","CHOP","CUT","Study2","F",22,38,"Study","Study Phase","",1332,"",NA
"M20310854",3,"Read","RAKE","SEED","Study2","M",14,8,"Study","Study Phase","",1860,"",NA
"M20310854",3,"Read","RAZOR","MUSCLE","Study2","M",20,32,"Study","Study Phase","",2348,"",NA
"M20310854",3,"Read","BLAZE","FIRE","Study2","F",26,15,"Study","Study Phase","",3242,"",NA
"M20310854",3,"Read","REALITY","ISLAND","Study2","M",9,12,"Study","Study Phase","",1876,"",NA
"M20310854",3,"Read","OVEN","BASKET","Study2","M",16,43,"Study","Study Phase","",3206,"",NA
"M20310854",3,"Read","SUMMER","SNOW","Study2","M",6,24,"Study","Study Phase","",5526,"",NA
"M20310854",3,"Read","CASH","LEG","Study2","U",50,9,"Study","Study Phase","",18076,"",NA
"M20311569KRB",3,"Read","RAKE","SEED","Study2","M",14,16,"Study","Study Phase","",2047,"",NA
"M20311569KRB",3,"Read","WINDOW","KNOB","Study2","M",19,13,"Study","Study Phase","",2054,"",NA
"M20311569KRB",3,"Read","CHILL","COLD","Study2","F",32,49,"Study","Study Phase","",3570,"",NA
"M20311569KRB",3,"Read","CHISEL","HAMMER","Study2","F",23,31,"Study","Study Phase","",1866,"",NA
"M20311569KRB",3,"Read","ARTERY","BRONZE","Study2","U",48,14,"Study","Study Phase","",2390,"",NA
"M20311569KRB",3,"Read","CACTUS","PLANT","Study2","F",21,47,"Study","Study Phase","",2348,"",NA
"M20311569KRB",3,"Read","CHOP","CUT","Study2","F",22,51,"Study","Study Phase","",2073,"",NA
"M20311569KRB",3,"Read","SUGAR","RIDDLE","Study2","U",40,22,"Study","Study Phase","",2713,"",NA
"M20311569KRB",3,"Read","BRIDGE","WATER","Study2","F",35,17,"Study","Study Phase","",2424,"",NA
"M20311569KRB",3,"Read","KING","VASE","Study2","U",36,41,"Study","Study Phase","",3784,"",NA
"M20311569KRB",3,"Read","ART","WOLF","Study2","U",38,43,"Study","Study Phase","",3317,"",NA
"M20311569KRB",3,"Read","PANTS","COLLAR","Study2","M",8,35,"Study","Study Phase","",2530,"",NA
"M20311569KRB",3,"Read","BLAZE","FIRE","Study2","F",26,27,"Study","Study Phase","",1790,"",NA
"M20311569KRB",3,"Read","EYES","SMELL","Study2","M",10,12,"Study","Study Phase","",1475,"",NA
"M20311569KRB",3,"Read","ATTIRE","CLOTHES","Study2","F",24,34,"Study","Study Phase","",1687,"",NA
"M20311569KRB",3,"Read","VALLEY","PEAK","Study2","M",18,21,"Study","Study Phase","",3710,"",NA
"M20311569KRB",3,"Read","OVEN","BASKET","Study2","M",16,38,"Study","Study Phase","",1305,"",NA
"M20311569KRB",3,"Read","BOTH","OUNCE","Study2","U",47,20,"Study","Study Phase","",2978,"",NA
"M20311569KRB",3,"Read","DOCUMENT","PAPER","Study2","F",27,25,"Study","Study Phase","",1165,"",NA
"M20311569KRB",3,"Read","FEUD","FIGHT","Study2","F",31,7,"Study","Study Phase","",1446,"",NA
"M20311569KRB",3,"Read","LEAGUE","BASEBALL","Study2","F",29,23,"Study","Study Phase","",975,"",NA
"M20311569KRB",3,"Read","LEASE","TOIL","Study2","U",46,30,"Study","Study Phase","",1733,"",NA
"M20311569KRB",3,"Read","DIETARY","SACK","Study2","U",42,37,"Study","Study Phase","",1911,"",NA
"M20311569KRB",3,"Read","REALITY","ISLAND","Study2","M",9,19,"Study","Study Phase","",2220,"",NA
"M20311569KRB",3,"Read","PUSH","CLUTTER","Study2","U",41,48,"Study","Study Phase","",1859,"",NA
"M20311569KRB",3,"Read","SOAP","DRINK","Study2","M",12,18,"Study","Study Phase","",2700,"",NA
"M20311569KRB",3,"Read","SICK","HIDE","Study2","U",45,33,"Study","Study Phase","",2040,"",NA
"M20311569KRB",3,"Read","HAPPY","CAR","Study2","U",37,46,"Study","Study Phase","",1206,"",NA
"M20311569KRB",3,"Read","INCENSE","SMELL","Study2","F",28,44,"Study","Study Phase","",2619,"",NA
"M20311569KRB",3,"Read","SUMMER","SNOW","Study2","M",6,24,"Study","Study Phase","",1998,"",NA
"M20311569KRB",3,"Read","BENCH","HORN","Study2","U",43,40,"Study","Study Phase","",1762,"",NA
"M20311569KRB",3,"Read","DEATH","BUSINESS","Study2","U",44,36,"Study","Study Phase","",2330,"",NA
"M20311569KRB",3,"Read","CHERRY","RED","Study2","F",25,26,"Study","Study Phase","",1407,"",NA
"M20311569KRB",3,"Read","CASH","LEG","Study2","U",50,50,"Study","Study Phase","",1176,"",NA
"M20311569KRB",3,"Read","HERD","COW","Study2","F",33,42,"Study","Study Phase","",2878,"",NA
"M20311569KRB",3,"Read","MIRROR","CHILDREN","Study2","U",49,28,"Study","Study Phase","",2095,"",NA
"M20311569KRB",3,"Read","GRILL","THIGH","Study2","M",17,29,"Study","Study Phase","",1720,"",NA
"M20311569KRB",3,"Read","TRAP","CAVE","Study2","M",15,45,"Study","Study Phase","",1659,"",NA
"M20311569KRB",3,"Read","WASP","BUG","Study2","F",34,32,"Study","Study Phase","",1163,"",NA
"M20311569KRB",3,"Read","NURSE","LAWYER","Study2","M",11,8,"Study","Study Phase","",1876,"",NA
"M20311569KRB",3,"Read","STRONG","ACCIDENT","Study2","U",39,39,"Study","Study Phase","",2924,"",NA
"M20311569KRB",3,"Read","HEAVY","FEATHER","Study2","M",13,15,"Study","Study Phase","",1915,"",NA
"M20311569KRB",3,"Read","HORNET","STING","Study2","F",30,11,"Study","Study Phase","",2483,"",NA
"M20311569KRB",3,"Read","SCHOOL","STOP","Study2","M",7,9,"Study","Study Phase","",1643,"",NA
"M20311569KRB",3,"Read","RAZOR","MUSCLE","Study2","M",20,10,"Study","Study Phase","",2476,"",NA
"M20311923",1,"Read","HYGIENE","CLEAN","Study1","F",28,38,"Study","Study Phase","",816,"",NA
"M20311923",1,"Read","TEMPERATURE","MORNING","Study1","U",48,10,"Study","Study Phase","",1202,"",NA
"M20311923",1,"Read","HORSE","WHEEL","Study1","M",14,24,"Study","Study Phase","",1687,"",NA
"M20311923",1,"Read","SOON","BELT","Study1","U",46,11,"Study","Study Phase","",1627,"",NA
"M20311923",1,"Read","SIP","DRINK","Study1","F",32,30,"Study","Study Phase","",2487,"",NA
"M20311923",1,"Read","MAZE","PHONE","Study1","U",42,26,"Study","Study Phase","",2317,"",NA
"M20311923",1,"Read","TREE","SYRUP","Study1","M",11,22,"Study","Study Phase","",1670,"",NA
"M20311923",1,"Read","BIRTHDAY","PIE","Study1","M",9,23,"Study","Study Phase","",1364,"",NA
"M20311923",1,"Read","SIGN","TICK","Study1","U",47,45,"Study","Study Phase","",2195,"",NA
"M20311923",1,"Read","WAGE","MONEY","Study1","F",22,37,"Study","Study Phase","",2737,"",NA
"M20311923",1,"Read","MIRROR","MAROON","Study1","U",36,36,"Study","Study Phase","",1342,"",NA
"M20311923",1,"Read","BEACH","BOX","Study1","M",7,42,"Study","Study Phase","",998,"",NA
"M20311923",1,"Read","FUZZY","BANG","Study1","U",50,19,"Study","Study Phase","",1602,"",NA
"M20311923",1,"Read","DAY","DARK","Study1","M",18,25,"Study","Study Phase","",890,"",NA
"M20311923",1,"Read","BAT","BOUNCE","Study1","M",12,18,"Study","Study Phase","",1256,"",NA
"M20311923",1,"Read","MULE","DONKEY","Study1","F",30,49,"Study","Study Phase","",1288,"",NA
"M20311923",1,"Read","NAP","SLEEP","Study1","F",29,33,"Study","Study Phase","",1226,"",NA
"M20311923",1,"Read","TUNA","FISH","Study1","F",35,12,"Study","Study Phase","",1305,"",NA
"M20311923",1,"Read","LION","STRIPES","Study1","M",6,13,"Study","Study Phase","",1471,"",NA
"M20311923",1,"Read","WAR","QUIET","Study1","M",8,20,"Study","Study Phase","",1331,"",NA
"M20311923",1,"Read","CRACKLE","ELECTION","Study1","U",39,31,"Study","Study Phase","",2481,"",NA
"M20311923",1,"Read","GIVE","STEAK","Study1","U",38,16,"Study","Study Phase","",1285,"",NA
"M20311923",1,"Read","MULE","DONKEY","Study1","F",24,41,"Study","Study Phase","",1443,"",NA
"M20311923",1,"Read","HARD","COTTON","Study1","M",20,17,"Study","Study Phase","",2180,"",NA
"M20311923",1,"Read","ROUGH","SILK","Study1","M",10,46,"Study","Study Phase","",1222,"",NA
"M20311923",1,"Read","CEILING","CARPET","Study1","M",15,50,"Study","Study Phase","",2354,"",NA
"M20311923",1,"Read","WEDDING","FINGER","Study1","M",17,47,"Study","Study Phase","",1559,"",NA
"M20311923",1,"Read","SHELL","SHAKE","Study1","U",43,14,"Study","Study Phase","",1752,"",NA
"M20311923",1,"Read","MEAT","KEYS","Study1","U",41,28,"Study","Study Phase","",1759,"",NA
"M20311923",1,"Read","LISTEN","FICTION","Study1","U",44,29,"Study","Study Phase","",1461,"",NA
"M20311923",1,"Read","CRY","BOTTLE","Study1","M",16,34,"Study","Study Phase","",2073,"",NA
"M20311923",1,"Read","TOOTH","HAIR","Study1","M",19,43,"Study","Study Phase","",2446,"",NA
"M20311923",1,"Read","VEHICLE","CHARM","Study1","U",40,32,"Study","Study Phase","",1804,"",NA
"M20311923",1,"Read","LITTER","TRASH","Study1","F",21,35,"Study","Study Phase","",1924,"",NA
"M20311923",1,"Read","STRETCH","CLOTH","Study1","U",37,7,"Study","Study Phase","",2126,"",NA
"M20311923",1,"Read","CREDIT","CARD","Study1","F",33,27,"Study","Study Phase","",1557,"",NA
"M20311923",1,"Read","CIRCLE","DANCE","Study1","M",13,9,"Study","Study Phase","",925,"",NA
"M20311923",1,"Read","ORCHID","FLOWER","Study1","F",34,8,"Study","Study Phase","",1029,"",NA
"M20311923",1,"Read","WORD","SENTENCE","Study1","F",27,21,"Study","Study Phase","",1162,"",NA
"M20311923",1,"Read","ROOT","PLANT","Study1","F",25,15,"Study","Study Phase","",958,"",NA
"M20311923",1,"Read","AFFECTION","LOVE","Study1","F",31,51,"Study","Study Phase","",853,"",NA
"M20311923",1,"Read","SCALP","HEAD","Study1","F",23,48,"Study","Study Phase","",685,"",NA
"M20311923",1,"Read","CAKE","HAND","Study1","U",49,40,"Study","Study Phase","",1428,"",NA
"M20311923",1,"Read","KEYS","ROD","Study1","U",45,44,"Study","Study Phase","",1119,"",NA
"M20311923",1,"Read","SWAN","BIRD","Study1","F",26,39,"Study","Study Phase","",1221,"",NA
"m20312639amo",1,"Read","CAKE","HAND","Study1","U",49,16,"Study","Study Phase","",3055,"",NA
"m20312639amo",1,"Read","LION","STRIPES","Study1","M",6,31,"Study","Study Phase","",4381,"",NA
"m20312639amo",1,"Read","SCALP","HEAD","Study1","F",23,34,"Study","Study Phase","",2236,"",NA
"m20312639amo",1,"Read","MULE","DONKEY","Study1","F",24,47,"Study","Study Phase","",1818,"",NA
"m20312639amo",1,"Read","SWAN","BIRD","Study1","F",26,33,"Study","Study Phase","",1257,"",NA
"m20312639amo",1,"Read","ORCHID","FLOWER","Study1","F",34,40,"Study","Study Phase","",2350,"",NA
"m20312639amo",1,"Read","MEAT","KEYS","Study1","U",41,9,"Study","Study Phase","",5454,"",NA
"m20312639amo",1,"Read","WAR","QUIET","Study1","M",8,25,"Study","Study Phase","",3531,"",NA
"m20312639amo",1,"Read","HORSE","WHEEL","Study1","M",14,50,"Study","Study Phase","",2310,"",NA
"m20312639amo",1,"Read","CEILING","CARPET","Study1","M",15,45,"Study","Study Phase","",2281,"",NA
"m20312639amo",1,"Read","BEACH","BOX","Study1","M",7,24,"Study","Study Phase","",1522,"",NA
"m20312639amo",1,"Read","BIRTHDAY","PIE","Study1","M",9,39,"Study","Study Phase","",1823,"",NA
"m20312639amo",1,"Read","CIRCLE","DANCE","Study1","M",13,36,"Study","Study Phase","",2154,"",NA
"m20312639amo",1,"Read","SIGN","TICK","Study1","U",47,42,"Study","Study Phase","",1412,"",NA
"m20312639amo",1,"Read","STRETCH","CLOTH","Study1","U",37,27,"Study","Study Phase","",1780,"",NA
"m20312639amo",1,"Read","WORD","SENTENCE","Study1","F",27,48,"Study","Study Phase","",1654,"",NA
"m20312639amo",1,"Read","BAT","BOUNCE","Study1","M",12,13,"Study","Study Phase","",1367,"",NA
"m20312639amo",1,"Read","CREDIT","CARD","Study1","F",33,44,"Study","Study Phase","",1491,"",NA
"m20312639amo",1,"Read","KEYS","ROD","Study1","U",45,8,"Study","Study Phase","",1523,"",NA
"m20312639amo",1,"Read","TEMPERATURE","MORNING","Study1","U",48,28,"Study","Study Phase","",1499,"",NA
"m20312639amo",1,"Read","CRACKLE","ELECTION","Study1","U",39,41,"Study","Study Phase","",1506,"",NA
"m20312639amo",1,"Read","TREE","SYRUP","Study1","M",11,15,"Study","Study Phase","",1376,"",NA
"m20312639amo",1,"Read","CRY","BOTTLE","Study1","M",16,18,"Study","Study Phase","",1248,"",NA
"m20312639amo",1,"Read","AFFECTION","LOVE","Study1","F",31,7,"Study","Study Phase","",1229,"",NA
"m20312639amo",1,"Read","TOOTH","HAIR","Study1","M",19,32,"Study","Study Phase","",1406,"",NA
"m20312639amo",1,"Read","MULE","DONKEY","Study1","F",30,22,"Study","Study Phase","",1338,"",NA
"m20312639amo",1,"Read","GIVE","STEAK","Study1","U",38,17,"Study","Study Phase","",1493,"",NA
"m20312639amo",1,"Read","FUZZY","BANG","Study1","U",50,46,"Study","Study Phase","",1226,"",NA
"m20312639amo",1,"Read","TUNA","FISH","Study1","F",35,23,"Study","Study Phase","",1304,"",NA
"m20312639amo",1,"Read","DAY","DARK","Study1","M",18,30,"Study","Study Phase","",1258,"",NA
"m20312639amo",1,"Read","SHELL","SHAKE","Study1","U",43,29,"Study","Study Phase","",2005,"",NA
"m20312639amo",1,"Read","VEHICLE","CHARM","Study1","U",40,12,"Study","Study Phase","",1686,"",NA
"m20312639amo",1,"Read","ROUGH","SILK","Study1","M",10,51,"Study","Study Phase","",1635,"",NA
"m20312639amo",1,"Read","MAZE","PHONE","Study1","U",42,10,"Study","Study Phase","",1403,"",NA
"m20312639amo",1,"Read","LITTER","TRASH","Study1","F",21,14,"Study","Study Phase","",1727,"",NA
"m20312639amo",1,"Read","ROOT","PLANT","Study1","F",25,19,"Study","Study Phase","",1206,"",NA
"m20312639amo",1,"Read","MIRROR","MAROON","Study1","U",36,43,"Study","Study Phase","",1222,"",NA
"m20312639amo",1,"Read","HYGIENE","CLEAN","Study1","F",28,20,"Study","Study Phase","",1412,"",NA
"m20312639amo",1,"Read","NAP","SLEEP","Study1","F",29,35,"Study","Study Phase","",1216,"",NA
"m20312639amo",1,"Read","SOON","BELT","Study1","U",46,49,"Study","Study Phase","",1306,"",NA
"m20312639amo",1,"Read","SIP","DRINK","Study1","F",32,11,"Study","Study Phase","",1378,"",NA
"m20312639amo",1,"Read","WAGE","MONEY","Study1","F",22,38,"Study","Study Phase","",1175,"",NA
"m20312639amo",1,"Read","HARD","COTTON","Study1","M",20,26,"Study","Study Phase","",1324,"",NA
"m20312639amo",1,"Read","LISTEN","FICTION","Study1","U",44,37,"Study","Study Phase","",1310,"",NA
"m20312639amo",1,"Read","WEDDING","FINGER","Study1","M",17,21,"Study","Study Phase","",1478,"",NA
"M20313679-EC",3,"Read","SCHOOL","STOP","Study2","M",7,44,"Study","Study Phase","",4880,"",NA
"M20313679-EC",3,"Read","RAZOR","MUSCLE","Study2","M",20,34,"Study","Study Phase","",4388,"",NA
"M20313679-EC",3,"Read","CACTUS","PLANT","Study2","F",21,26,"Study","Study Phase","",1970,"",NA
"M20313679-EC",3,"Read","FEUD","FIGHT","Study2","F",31,49,"Study","Study Phase","",2704,"",NA
"M20313679-EC",3,"Read","BENCH","HORN","Study2","U",43,42,"Study","Study Phase","",2818,"",NA
"M20313679-EC",3,"Read","WINDOW","KNOB","Study2","M",19,7,"Study","Study Phase","",2311,"",NA
"M20313679-EC",3,"Read","SOAP","DRINK","Study2","M",12,40,"Study","Study Phase","",5526,"",NA
"M20313679-EC",3,"Read","REALITY","ISLAND","Study2","M",9,28,"Study","Study Phase","",5282,"",NA
"M20313679-EC",3,"Read","INCENSE","SMELL","Study2","F",28,39,"Study","Study Phase","",3727,"",NA
"M20313679-EC",3,"Read","DEATH","BUSINESS","Study2","U",44,23,"Study","Study Phase","",3286,"",NA
"M20313679-EC",3,"Read","NURSE","LAWYER","Study2","M",11,50,"Study","Study Phase","",4131,"",NA
"M20313679-EC",3,"Read","DIETARY","SACK","Study2","U",42,24,"Study","Study Phase","",5896,"",NA
"M20313679-EC",3,"Read","SICK","HIDE","Study2","U",45,25,"Study","Study Phase","",3432,"",NA
"M20313679-EC",3,"Read","ART","WOLF","Study2","U",38,35,"Study","Study Phase","",7221,"",NA
"M20313679-EC",3,"Read","EYES","SMELL","Study2","M",10,41,"Study","Study Phase","",4394,"",NA
"M20313679-EC",3,"Read","TRAP","CAVE","Study2","M",15,13,"Study","Study Phase","",3178,"",NA
"M20313679-EC",3,"Read","LEAGUE","BASEBALL","Study2","F",29,30,"Study","Study Phase","",2963,"",NA
"M20313679-EC",3,"Read","WASP","BUG","Study2","F",34,20,"Study","Study Phase","",2425,"",NA
"M20313679-EC",3,"Read","HAPPY","CAR","Study2","U",37,43,"Study","Study Phase","",3487,"",NA
"M20313679-EC",3,"Read","SUMMER","SNOW","Study2","M",6,12,"Study","Study Phase","",4217,"",NA
"M20313679-EC",3,"Read","MIRROR","CHILDREN","Study2","U",49,51,"Study","Study Phase","",4924,"",NA
"M20313679-EC",3,"Read","CHILL","COLD","Study2","F",32,45,"Study","Study Phase","",4232,"",NA
"M20313679-EC",3,"Read","STRONG","ACCIDENT","Study2","U",39,16,"Study","Study Phase","",3712,"",NA
"M20313679-EC",3,"Read","CASH","LEG","Study2","U",50,38,"Study","Study Phase","",4192,"",NA
"M20313679-EC",3,"Read","RAKE","SEED","Study2","M",14,10,"Study","Study Phase","",2382,"",NA
"M20313679-EC",3,"Read","CHOP","CUT","Study2","F",22,31,"Study","Study Phase","",2042,"",NA
"M20313679-EC",3,"Read","LEASE","TOIL","Study2","U",46,27,"Study","Study Phase","",6592,"",NA
"M20313679-EC",3,"Read","BLAZE","FIRE","Study2","F",26,11,"Study","Study Phase","",4519,"",NA
"M20313679-EC",3,"Read","GRILL","THIGH","Study2","M",17,19,"Study","Study Phase","",5842,"",NA
"M20313679-EC",3,"Read","HORNET","STING","Study2","F",30,32,"Study","Study Phase","",2044,"",NA
"M20313679-EC",3,"Read","HEAVY","FEATHER","Study2","M",13,14,"Study","Study Phase","",2246,"",NA
"M20313679-EC",3,"Read","CHISEL","HAMMER","Study2","F",23,15,"Study","Study Phase","",3370,"",NA
"M20313679-EC",3,"Read","KING","VASE","Study2","U",36,29,"Study","Study Phase","",3741,"",NA
"M20313679-EC",3,"Read","ATTIRE","CLOTHES","Study2","F",24,47,"Study","Study Phase","",2327,"",NA
"M20313679-EC",3,"Read","ARTERY","BRONZE","Study2","U",48,36,"Study","Study Phase","",3015,"",NA
"M20313679-EC",3,"Read","BRIDGE","WATER","Study2","F",35,17,"Study","Study Phase","",3196,"",NA
"M20313679-EC",3,"Read","HERD","COW","Study2","F",33,21,"Study","Study Phase","",2377,"",NA
"M20313679-EC",3,"Read","PANTS","COLLAR","Study2","M",8,8,"Study","Study Phase","",3863,"",NA
"M20313679-EC",3,"Read","CHERRY","RED","Study2","F",25,22,"Study","Study Phase","",2410,"",NA
"M20313679-EC",3,"Read","PUSH","CLUTTER","Study2","U",41,9,"Study","Study Phase","",2668,"",NA
"M20313679-EC",3,"Read","BOTH","OUNCE","Study2","U",47,48,"Study","Study Phase","",2771,"",NA
"M20313679-EC",3,"Read","VALLEY","PEAK","Study2","M",18,18,"Study","Study Phase","",2420,"",NA
"M20313679-EC",3,"Read","OVEN","BASKET","Study2","M",16,33,"Study","Study Phase","",1899,"",NA
"M20313679-EC",3,"Read","SUGAR","RIDDLE","Study2","U",40,37,"Study","Study Phase","",2467,"",NA
"M20313679-EC",3,"Read","DOCUMENT","PAPER","Study2","F",27,46,"Study","Study Phase","",1957,"",NA
"M20315254AS",3,"Read","EYES","SMELL","Study2","M",10,25,"Study","Study Phase","",1208,"",NA
"M20315254AS",3,"Read","BRIDGE","WATER","Study2","F",35,12,"Study","Study Phase","",1729,"",NA
"M20315254AS",3,"Read","ARTERY","BRONZE","Study2","U",48,46,"Study","Study Phase","",1482,"",NA
"M20315254AS",3,"Read","LEASE","TOIL","Study2","U",46,47,"Study","Study Phase","",2529,"",NA
"M20315254AS",3,"Read","CHISEL","HAMMER","Study2","F",23,16,"Study","Study Phase","",1522,"",NA
"M20315254AS",3,"Read","CASH","LEG","Study2","U",50,43,"Study","Study Phase","",168793,"",NA
"M20315254AS",3,"Read","HORNET","STING","Study2","F",30,36,"Study","Study Phase","",3365,"",NA
"M20315254AS",3,"Read","BOTH","OUNCE","Study2","U",47,34,"Study","Study Phase","",487,"",NA
"M20315254AS",3,"Read","SUGAR","RIDDLE","Study2","U",40,13,"Study","Study Phase","",3095,"",NA
"M20315254AS",3,"Read","FEUD","FIGHT","Study2","F",31,7,"Study","Study Phase","",1211,"",NA
"M20315254AS",3,"Read","PANTS","COLLAR","Study2","M",8,39,"Study","Study Phase","",1019,"",NA
"M20315254AS",3,"Read","CHERRY","RED","Study2","F",25,26,"Study","Study Phase","",1232,"",NA
"M20315254AS",3,"Read","ATTIRE","CLOTHES","Study2","F",24,22,"Study","Study Phase","",894,"",NA
"M20315254AS",3,"Read","ART","WOLF","Study2","U",38,11,"Study","Study Phase","",965,"",NA
"M20315254AS",3,"Read","KING","VASE","Study2","U",36,42,"Study","Study Phase","",8143,"",NA
"M20315254AS",3,"Read","HAPPY","CAR","Study2","U",37,37,"Study","Study Phase","",4009,"",NA
"M20315254AS",3,"Read","DEATH","BUSINESS","Study2","U",44,17,"Study","Study Phase","",1932,"",NA
"M20315254AS",3,"Read","DIETARY","SACK","Study2","U",42,30,"Study","Study Phase","",5451,"",NA
"M20315254AS",3,"Read","LEAGUE","BASEBALL","Study2","F",29,18,"Study","Study Phase","",1254,"",NA
"M20315254AS",3,"Read","REALITY","ISLAND","Study2","M",9,48,"Study","Study Phase","",1158,"",NA
"M20315254AS",3,"Read","NURSE","LAWYER","Study2","M",11,31,"Study","Study Phase","",1046,"",NA
"M20315254AS",3,"Read","RAZOR","MUSCLE","Study2","M",20,10,"Study","Study Phase","",970,"",NA
"M20315254AS",3,"Read","HEAVY","FEATHER","Study2","M",13,45,"Study","Study Phase","",1026,"",NA
"M20315254AS",3,"Read","TRAP","CAVE","Study2","M",15,49,"Study","Study Phase","",1146,"",NA
"M20315254AS",3,"Read","INCENSE","SMELL","Study2","F",28,51,"Study","Study Phase","",910,"",NA
"M20315254AS",3,"Read","OVEN","BASKET","Study2","M",16,44,"Study","Study Phase","",927,"",NA
"M20315254AS",3,"Read","PUSH","CLUTTER","Study2","U",41,35,"Study","Study Phase","",1662,"",NA
"M20315254AS",3,"Read","SOAP","DRINK","Study2","M",12,29,"Study","Study Phase","",940,"",NA
"M20315254AS",3,"Read","SICK","HIDE","Study2","U",45,32,"Study","Study Phase","",3016,"",NA
"M20315254AS",3,"Read","RAKE","SEED","Study2","M",14,14,"Study","Study Phase","",4165,"",NA
"M20315254AS",3,"Read","GRILL","THIGH","Study2","M",17,20,"Study","Study Phase","",2356,"",NA
"M20315254AS",3,"Read","MIRROR","CHILDREN","Study2","U",49,19,"Study","Study Phase","",3669,"",NA
"M20315254AS",3,"Read","WASP","BUG","Study2","F",34,50,"Study","Study Phase","",7722,"",NA
"M20315254AS",3,"Read","VALLEY","PEAK","Study2","M",18,27,"Study","Study Phase","",2706,"",NA
"M20315254AS",3,"Read","WINDOW","KNOB","Study2","M",19,28,"Study","Study Phase","",1625,"",NA
"M20315254AS",3,"Read","CHILL","COLD","Study2","F",32,21,"Study","Study Phase","",1963,"",NA
"M20315254AS",3,"Read","DOCUMENT","PAPER","Study2","F",27,38,"Study","Study Phase","",1947,"",NA
"M20315254AS",3,"Read","SUMMER","SNOW","Study2","M",6,24,"Study","Study Phase","",2611,"",NA
"M20315254AS",3,"Read","STRONG","ACCIDENT","Study2","U",39,40,"Study","Study Phase","",6382,"",NA
"M20315254AS",3,"Read","CHOP","CUT","Study2","F",22,33,"Study","Study Phase","",1987,"",NA
"M20315254AS",3,"Read","SCHOOL","STOP","Study2","M",7,23,"Study","Study Phase","",1121,"",NA
"M20315254AS",3,"Read","CACTUS","PLANT","Study2","F",21,9,"Study","Study Phase","",1176,"",NA
"M20315254AS",3,"Read","BENCH","HORN","Study2","U",43,8,"Study","Study Phase","",5776,"",NA
"M20315254AS",3,"Read","BLAZE","FIRE","Study2","F",26,15,"Study","Study Phase","",1661,"",NA
"M20315254AS",3,"Read","HERD","COW","Study2","F",33,41,"Study","Study Phase","",31164,"",NA
"M20315432_AV",3,"Read","WASP","BUG","Study2","F",34,22,"Study","Study Phase","",844,"",NA
"M20315432_AV",3,"Read","WINDOW","KNOB","Study2","M",19,29,"Study","Study Phase","",819,"",NA
"M20315432_AV",3,"Read","CHISEL","HAMMER","Study2","F",23,47,"Study","Study Phase","",841,"",NA
"M20315432_AV",3,"Read","ARTERY","BRONZE","Study2","U",48,14,"Study","Study Phase","",1719,"",NA
"M20315432_AV",3,"Read","BRIDGE","WATER","Study2","F",35,26,"Study","Study Phase","",641,"",NA
"M20315432_AV",3,"Read","PUSH","CLUTTER","Study2","U",41,36,"Study","Study Phase","",991,"",NA
"M20315432_AV",3,"Read","RAZOR","MUSCLE","Study2","M",20,9,"Study","Study Phase","",972,"",NA
"M20315432_AV",3,"Read","CHOP","CUT","Study2","F",22,31,"Study","Study Phase","",642,"",NA
"M20315432_AV",3,"Read","TRAP","CAVE","Study2","M",15,48,"Study","Study Phase","",588,"",NA
"M20315432_AV",3,"Read","SUGAR","RIDDLE","Study2","U",40,23,"Study","Study Phase","",749,"",NA
"M20315432_AV",3,"Read","ATTIRE","CLOTHES","Study2","F",24,41,"Study","Study Phase","",793,"",NA
"M20315432_AV",3,"Read","BENCH","HORN","Study2","U",43,8,"Study","Study Phase","",774,"",NA
"M20315432_AV",3,"Read","BOTH","OUNCE","Study2","U",47,32,"Study","Study Phase","",723,"",NA
"M20315432_AV",3,"Read","SOAP","DRINK","Study2","M",12,49,"Study","Study Phase","",713,"",NA
"M20315432_AV",3,"Read","HORNET","STING","Study2","F",30,15,"Study","Study Phase","",758,"",NA
"M20315432_AV",3,"Read","CACTUS","PLANT","Study2","F",21,42,"Study","Study Phase","",622,"",NA
"M20315432_AV",3,"Read","EYES","SMELL","Study2","M",10,50,"Study","Study Phase","",471,"",NA
"M20315432_AV",3,"Read","LEASE","TOIL","Study2","U",46,16,"Study","Study Phase","",462,"",NA
"M20315432_AV",3,"Read","HAPPY","CAR","Study2","U",37,21,"Study","Study Phase","",389,"",NA
"M20315432_AV",3,"Read","FEUD","FIGHT","Study2","F",31,28,"Study","Study Phase","",624,"",NA
"M20315432_AV",3,"Read","HERD","COW","Study2","F",33,37,"Study","Study Phase","",466,"",NA
"M20315432_AV",3,"Read","GRILL","THIGH","Study2","M",17,27,"Study","Study Phase","",430,"",NA
"M20315432_AV",3,"Read","SCHOOL","STOP","Study2","M",7,46,"Study","Study Phase","",434,"",NA
"M20315432_AV",3,"Read","LEAGUE","BASEBALL","Study2","F",29,38,"Study","Study Phase","",913,"",NA
"M20315432_AV",3,"Read","DOCUMENT","PAPER","Study2","F",27,33,"Study","Study Phase","",574,"",NA
"M20315432_AV",3,"Read","CHILL","COLD","Study2","F",32,7,"Study","Study Phase","",579,"",NA
"M20315432_AV",3,"Read","PANTS","COLLAR","Study2","M",8,12,"Study","Study Phase","",677,"",NA
"M20315432_AV",3,"Read","SICK","HIDE","Study2","U",45,44,"Study","Study Phase","",640,"",NA
"M20315432_AV",3,"Read","NURSE","LAWYER","Study2","M",11,11,"Study","Study Phase","",692,"",NA
"M20315432_AV",3,"Read","KING","VASE","Study2","U",36,24,"Study","Study Phase","",652,"",NA
"M20315432_AV",3,"Read","SUMMER","SNOW","Study2","M",6,34,"Study","Study Phase","",644,"",NA
"M20315432_AV",3,"Read","CASH","LEG","Study2","U",50,17,"Study","Study Phase","",644,"",NA
"M20315432_AV",3,"Read","DEATH","BUSINESS","Study2","U",44,18,"Study","Study Phase","",492,"",NA
"M20315432_AV",3,"Read","RAKE","SEED","Study2","M",14,25,"Study","Study Phase","",656,"",NA
"M20315432_AV",3,"Read","CHERRY","RED","Study2","F",25,10,"Study","Study Phase","",705,"",NA
"M20315432_AV",3,"Read","INCENSE","SMELL","Study2","F",28,35,"Study","Study Phase","",710,"",NA
"M20315432_AV",3,"Read","DIETARY","SACK","Study2","U",42,43,"Study","Study Phase","",874,"",NA
"M20315432_AV",3,"Read","MIRROR","CHILDREN","Study2","U",49,13,"Study","Study Phase","",573,"",NA
"M20315432_AV",3,"Read","OVEN","BASKET","Study2","M",16,30,"Study","Study Phase","",542,"",NA
"M20315432_AV",3,"Read","BLAZE","FIRE","Study2","F",26,19,"Study","Study Phase","",461,"",NA
"M20315432_AV",3,"Read","REALITY","ISLAND","Study2","M",9,39,"Study","Study Phase","",454,"",NA
"M20315432_AV",3,"Read","STRONG","ACCIDENT","Study2","U",39,20,"Study","Study Phase","",430,"",NA
"M20315432_AV",3,"Read","ART","WOLF","Study2","U",38,51,"Study","Study Phase","",636,"",NA
"M20315432_AV",3,"Read","HEAVY","FEATHER","Study2","M",13,40,"Study","Study Phase","",556,"",NA
"M20315432_AV",3,"Read","VALLEY","PEAK","Study2","M",18,45,"Study","Study Phase","",486,"",NA
"M20315670Z.P",1,"Read","SCALP","HEAD","Study1","F",23,26,"Study","Study Phase","",1654,"",NA
"M20315670Z.P",1,"Read","AFFECTION","LOVE","Study1","F",31,16,"Study","Study Phase","",2293,"",NA
"M20315670Z.P",1,"Read","SWAN","BIRD","Study1","F",26,41,"Study","Study Phase","",2142,"",NA
"M20315670Z.P",1,"Read","HARD","COTTON","Study1","M",20,47,"Study","Study Phase","",4443,"",NA
"M20315670Z.P",1,"Read","MIRROR","MAROON","Study1","U",36,36,"Study","Study Phase","",2280,"",NA
"M20315670Z.P",1,"Read","MEAT","KEYS","Study1","U",41,22,"Study","Study Phase","",2283,"",NA
"M20315670Z.P",1,"Read","NAP","SLEEP","Study1","F",29,49,"Study","Study Phase","",1595,"",NA
"M20315670Z.P",1,"Read","FUZZY","BANG","Study1","U",50,15,"Study","Study Phase","",1959,"",NA
"M20315670Z.P",1,"Read","SIP","DRINK","Study1","F",32,10,"Study","Study Phase","",1982,"",NA
"M20315670Z.P",1,"Read","MULE","DONKEY","Study1","F",30,33,"Study","Study Phase","",2238,"",NA
"M20315670Z.P",1,"Read","WAR","QUIET","Study1","M",8,32,"Study","Study Phase","",2515,"",NA
"M20315670Z.P",1,"Read","LISTEN","FICTION","Study1","U",44,44,"Study","Study Phase","",2840,"",NA
"M20315670Z.P",1,"Read","WORD","SENTENCE","Study1","F",27,9,"Study","Study Phase","",1842,"",NA
"M20315670Z.P",1,"Read","LITTER","TRASH","Study1","F",21,48,"Study","Study Phase","",2418,"",NA
"M20315670Z.P",1,"Read","BEACH","BOX","Study1","M",7,39,"Study","Study Phase","",2353,"",NA
"M20315670Z.P",1,"Read","SOON","BELT","Study1","U",46,43,"Study","Study Phase","",2103,"",NA
"M20315670Z.P",1,"Read","GIVE","STEAK","Study1","U",38,30,"Study","Study Phase","",2635,"",NA
"M20315670Z.P",1,"Read","TREE","SYRUP","Study1","M",11,40,"Study","Study Phase","",2241,"",NA
"M20315670Z.P",1,"Read","CREDIT","CARD","Study1","F",33,51,"Study","Study Phase","",1416,"",NA
"M20315670Z.P",1,"Read","HORSE","WHEEL","Study1","M",14,17,"Study","Study Phase","",2193,"",NA
"M20315670Z.P",1,"Read","HYGIENE","CLEAN","Study1","F",28,13,"Study","Study Phase","",2228,"",NA
"M20315670Z.P",1,"Read","TEMPERATURE","MORNING","Study1","U",48,21,"Study","Study Phase","",2348,"",NA
"M20315670Z.P",1,"Read","CRACKLE","ELECTION","Study1","U",39,8,"Study","Study Phase","",2958,"",NA
"M20315670Z.P",1,"Read","WEDDING","FINGER","Study1","M",17,7,"Study","Study Phase","",2174,"",NA
"M20315670Z.P",1,"Read","STRETCH","CLOTH","Study1","U",37,28,"Study","Study Phase","",1902,"",NA
"M20315670Z.P",1,"Read","SHELL","SHAKE","Study1","U",43,24,"Study","Study Phase","",1913,"",NA
"M20315670Z.P",1,"Read","BIRTHDAY","PIE","Study1","M",9,27,"Study","Study Phase","",1833,"",NA
"M20315670Z.P",1,"Read","SIGN","TICK","Study1","U",47,45,"Study","Study Phase","",2490,"",NA
"M20315670Z.P",1,"Read","CRY","BOTTLE","Study1","M",16,50,"Study","Study Phase","",1671,"",NA
"M20315670Z.P",1,"Read","VEHICLE","CHARM","Study1","U",40,20,"Study","Study Phase","",2054,"",NA
"M20315670Z.P",1,"Read","MULE","DONKEY","Study1","F",24,34,"Study","Study Phase","",1933,"",NA
"M20315670Z.P",1,"Read","LION","STRIPES","Study1","M",6,29,"Study","Study Phase","",1902,"",NA
"M20315670Z.P",1,"Read","ORCHID","FLOWER","Study1","F",34,42,"Study","Study Phase","",2212,"",NA
"M20315670Z.P",1,"Read","WAGE","MONEY","Study1","F",22,46,"Study","Study Phase","",2045,"",NA
"M20315670Z.P",1,"Read","CIRCLE","DANCE","Study1","M",13,23,"Study","Study Phase","",1947,"",NA
"M20315670Z.P",1,"Read","TUNA","FISH","Study1","F",35,18,"Study","Study Phase","",1584,"",NA
"M20315670Z.P",1,"Read","ROOT","PLANT","Study1","F",25,31,"Study","Study Phase","",1494,"",NA
"M20315670Z.P",1,"Read","KEYS","ROD","Study1","U",45,25,"Study","Study Phase","",2032,"",NA
"M20315670Z.P",1,"Read","BAT","BOUNCE","Study1","M",12,14,"Study","Study Phase","",1785,"",NA
"M20315670Z.P",1,"Read","DAY","DARK","Study1","M",18,19,"Study","Study Phase","",1569,"",NA
"M20315670Z.P",1,"Read","CAKE","HAND","Study1","U",49,11,"Study","Study Phase","",1734,"",NA
"M20315670Z.P",1,"Read","ROUGH","SILK","Study1","M",10,35,"Study","Study Phase","",3738,"",NA
"M20315670Z.P",1,"Read","MAZE","PHONE","Study1","U",42,12,"Study","Study Phase","",1498,"",NA
"M20315670Z.P",1,"Read","TOOTH","HAIR","Study1","M",19,37,"Study","Study Phase","",1627,"",NA
"M20315670Z.P",1,"Read","CEILING","CARPET","Study1","M",15,38,"Study","Study Phase","",2224,"",NA
"M20317287",1,"Read","ROOT","PLANT","Study1","F",25,46,"Study","Study Phase","",1487,"",NA
"M20317287",1,"Read","DAY","DARK","Study1","M",18,35,"Study","Study Phase","",1582,"",NA
"M20317287",1,"Read","GIVE","STEAK","Study1","U",38,50,"Study","Study Phase","",1399,"",NA
"M20317287",1,"Read","ORCHID","FLOWER","Study1","F",34,33,"Study","Study Phase","",1205,"",NA
"M20317287",1,"Read","CEILING","CARPET","Study1","M",15,38,"Study","Study Phase","",1396,"",NA
"M20317287",1,"Read","FUZZY","BANG","Study1","U",50,9,"Study","Study Phase","",1426,"",NA
"M20317287",1,"Read","CRACKLE","ELECTION","Study1","U",39,21,"Study","Study Phase","",1549,"",NA
"M20317287",1,"Read","TEMPERATURE","MORNING","Study1","U",48,26,"Study","Study Phase","",1284,"",NA
"M20317287",1,"Read","TUNA","FISH","Study1","F",35,22,"Study","Study Phase","",1332,"",NA
"M20317287",1,"Read","WORD","SENTENCE","Study1","F",27,8,"Study","Study Phase","",989,"",NA
"M20317287",1,"Read","ROUGH","SILK","Study1","M",10,37,"Study","Study Phase","",843,"",NA
"M20317287",1,"Read","TREE","SYRUP","Study1","M",11,25,"Study","Study Phase","",840,"",NA
"M20317287",1,"Read","CIRCLE","DANCE","Study1","M",13,29,"Study","Study Phase","",960,"",NA
"M20317287",1,"Read","BEACH","BOX","Study1","M",7,7,"Study","Study Phase","",1024,"",NA
"M20317287",1,"Read","LISTEN","FICTION","Study1","U",44,15,"Study","Study Phase","",825,"",NA
"M20317287",1,"Read","LION","STRIPES","Study1","M",6,44,"Study","Study Phase","",983,"",NA
"M20317287",1,"Read","MULE","DONKEY","Study1","F",24,34,"Study","Study Phase","",834,"",NA
"M20317287",1,"Read","STRETCH","CLOTH","Study1","U",37,42,"Study","Study Phase","",694,"",NA
"M20317287",1,"Read","KEYS","ROD","Study1","U",45,41,"Study","Study Phase","",679,"",NA
"M20317287",1,"Read","HARD","COTTON","Study1","M",20,43,"Study","Study Phase","",653,"",NA
"M20317287",1,"Read","MIRROR","MAROON","Study1","U",36,19,"Study","Study Phase","",526,"",NA
"M20317287",1,"Read","SCALP","HEAD","Study1","F",23,24,"Study","Study Phase","",582,"",NA
"M20317287",1,"Read","WAR","QUIET","Study1","M",8,47,"Study","Study Phase","",564,"",NA
"M20317287",1,"Read","TOOTH","HAIR","Study1","M",19,32,"Study","Study Phase","",689,"",NA
"M20317287",1,"Read","HYGIENE","CLEAN","Study1","F",28,31,"Study","Study Phase","",564,"",NA
"M20317287",1,"Read","MULE","DONKEY","Study1","F",30,13,"Study","Study Phase","",592,"",NA
"M20317287",1,"Read","WAGE","MONEY","Study1","F",22,20,"Study","Study Phase","",625,"",NA
"M20317287",1,"Read","SIGN","TICK","Study1","U",47,10,"Study","Study Phase","",952,"",NA
"M20317287",1,"Read","BIRTHDAY","PIE","Study1","M",9,36,"Study","Study Phase","",1305,"",NA
"M20317287",1,"Read","MAZE","PHONE","Study1","U",42,14,"Study","Study Phase","",852,"",NA
"M20317287",1,"Read","SWAN","BIRD","Study1","F",26,18,"Study","Study Phase","",882,"",NA
"M20317287",1,"Read","SHELL","SHAKE","Study1","U",43,28,"Study","Study Phase","",893,"",NA
"M20317287",1,"Read","VEHICLE","CHARM","Study1","U",40,48,"Study","Study Phase","",1349,"",NA
"M20317287",1,"Read","CAKE","HAND","Study1","U",49,30,"Study","Study Phase","",597,"",NA
"M20317287",1,"Read","SOON","BELT","Study1","U",46,51,"Study","Study Phase","",535,"",NA
"M20317287",1,"Read","CREDIT","CARD","Study1","F",33,12,"Study","Study Phase","",480,"",NA
"M20317287",1,"Read","HORSE","WHEEL","Study1","M",14,23,"Study","Study Phase","",627,"",NA
"M20317287",1,"Read","BAT","BOUNCE","Study1","M",12,11,"Study","Study Phase","",601,"",NA
"M20317287",1,"Read","NAP","SLEEP","Study1","F",29,27,"Study","Study Phase","",729,"",NA
"M20317287",1,"Read","SIP","DRINK","Study1","F",32,40,"Study","Study Phase","",667,"",NA
"M20317287",1,"Read","WEDDING","FINGER","Study1","M",17,17,"Study","Study Phase","",641,"",NA
"M20317287",1,"Read","CRY","BOTTLE","Study1","M",16,16,"Study","Study Phase","",597,"",NA
"M20317287",1,"Read","AFFECTION","LOVE","Study1","F",31,39,"Study","Study Phase","",390,"",NA
"M20317287",1,"Read","LITTER","TRASH","Study1","F",21,45,"Study","Study Phase","",658,"",NA
"M20317287",1,"Read","MEAT","KEYS","Study1","U",41,49,"Study","Study Phase","",439,"",NA
"M20317426CH",1,"Read","SOON","BELT","Study1","U",46,15,"Study","Study Phase","",825,"",NA
"M20317426CH",1,"Read","HYGIENE","CLEAN","Study1","F",28,50,"Study","Study Phase","",728,"",NA
"M20317426CH",1,"Read","TUNA","FISH","Study1","F",35,29,"Study","Study Phase","",668,"",NA
"M20317426CH",1,"Read","HORSE","WHEEL","Study1","M",14,27,"Study","Study Phase","",604,"",NA
"M20317426CH",1,"Read","SCALP","HEAD","Study1","F",23,9,"Study","Study Phase","",1232,"",NA
"M20317426CH",1,"Read","MIRROR","MAROON","Study1","U",36,19,"Study","Study Phase","",37244,"",NA
"M20317426CH",1,"Read","WORD","SENTENCE","Study1","F",27,13,"Study","Study Phase","",4397,"",NA
"M20317426CH",1,"Read","KEYS","ROD","Study1","U",45,22,"Study","Study Phase","",826,"",NA
"M20317426CH",1,"Read","MULE","DONKEY","Study1","F",24,20,"Study","Study Phase","",579,"",NA
"M20317426CH",1,"Read","SIGN","TICK","Study1","U",47,18,"Study","Study Phase","",1222,"",NA
"M20317426CH",1,"Read","SIP","DRINK","Study1","F",32,46,"Study","Study Phase","",631,"",NA
"M20317426CH",1,"Read","CRY","BOTTLE","Study1","M",16,25,"Study","Study Phase","",470,"",NA
"M20317426CH",1,"Read","BIRTHDAY","PIE","Study1","M",9,37,"Study","Study Phase","",1678,"",NA
"M20317426CH",1,"Read","SHELL","SHAKE","Study1","U",43,33,"Study","Study Phase","",4672,"",NA
"M20317426CH",1,"Read","DAY","DARK","Study1","M",18,21,"Study","Study Phase","",3966,"",NA
"M20317426CH",1,"Read","MULE","DONKEY","Study1","F",30,8,"Study","Study Phase","",1859,"",NA
"M20317426CH",1,"Read","WAGE","MONEY","Study1","F",22,32,"Study","Study Phase","",1397,"",NA
"M20317426CH",1,"Read","LISTEN","FICTION","Study1","U",44,16,"Study","Study Phase","",2459,"",NA
"M20317426CH",1,"Read","STRETCH","CLOTH","Study1","U",37,28,"Study","Study Phase","",2061,"",NA
"M20317426CH",1,"Read","SWAN","BIRD","Study1","F",26,14,"Study","Study Phase","",1862,"",NA
"M20317426CH",1,"Read","CIRCLE","DANCE","Study1","M",13,34,"Study","Study Phase","",1432,"",NA
"M20317426CH",1,"Read","CAKE","HAND","Study1","U",49,42,"Study","Study Phase","",1722,"",NA
