Username,ID,ExperimentName,Session,Trial,Date,TimeDif,"Condition Number","Stimuli File","Order File","Condition Description","Condition Notes",Stimuli*Cue,Stimuli*Answer,Stimuli*Shuffle,"Stimuli*Stimuli Notes",Stimuli*Value,Procedure*Item,"Procedure*Trial Type","Procedure*Max Time","Procedure*Min Time",Procedure*Text,"Procedure*Procedure Notes",Procedure*Shuffle,Procedure*,Response*RT,Response*Response,Response*Accuracy,Response*RTfirst,Response*RTlast,Response*strictAcc,Response*lenientAcc,Response*focus,Response*Focus
63cfeeba5c3e8b7f34c76817,karsy090f7,"Mediated Recog Prolific",1,1,2023-05-08T20:25:46+00:00,5.830924987793,7,versionD_stim.csv,ReadVersion_Recog.csv,"Read Recog",Read4,,,,,,0,Instruct,-,5,"In this section, you will be presented with a series of word pairs. Please study each word pair! Your memory will be tested!",Initial_Instruct,Instruct1,,5541,,,-1,-1,,,,1
63cfeeba5c3e8b7f34c76817,karsy090f7,"Mediated Recog Prolific",1,2,2023-05-08T20:25:49+00:00,2.3235461711884,7,versionD_stim.csv,ReadVersion_Recog.csv,"Read Recog",Read4,,,,,,0,Instruct,User,-,"You will now begin. Press Enter when you are ready to begin.",,Instruct16,,1878,,,-1,-1,,,,1
63cfeeba5c3e8b7f34c76817,karsy090f7,"Mediated Recog Prolific",1,3,2023-05-08T20:25:52+00:00,3.6208288669586,7,versionD_stim.csv,ReadVersion_Recog.csv,"Read Recog",Read4,MONTH,YEAR,BUFFER3,Buffer,2,3,Study,User,-,,Study/JOL,BUFFER,,3193,,,-1,-1,,,,1
63cfeeba5c3e8b7f34c76817,karsy090f7,"Mediated Recog Prolific",1,4,2023-05-08T20:25:56+00:00,4.1585781574249,7,versionD_stim.csv,ReadVersion_Recog.csv,"Read Recog",Read4,SPRING,MARCH,BUFFER3,Buffer,4,2,Study,User,-,,Study/JOL,BUFFER,,3726,,,-1,-1,,,,1
63cfeeba5c3e8b7f34c76817,karsy090f7,"Mediated Recog Prolific",1,5,2023-05-08T20:25:59+00:00,2.9258069992065,7,versionD_stim.csv,ReadVersion_Recog.csv,"Read Recog",Read4,DAYS,WEAKS,BUFFER3,Buffer,1,4,Study,User,-,,Study/JOL,BUFFER,,2502,,,-1,-1,,,,1
63cfeeba5c3e8b7f34c76817,karsy090f7,"Mediated Recog Prolific",1,6,2023-05-08T20:26:02+00:00,2.692263841629,7,versionD_stim.csv,ReadVersion_Recog.csv,"Read Recog",Read4,TOOL,SHED,BUFFER3,Buffer,3,5,Study,User,-,,Study/JOL,BUFFER,,2264,,,-1,-1,,,,1
63cfeeba5c3e8b7f34c76817,karsy090f7,"Mediated Recog Prolific",1,7,2023-05-08T20:26:04+00:00,2.1545059680939,7,versionD_stim.csv,ReadVersion_Recog.csv,"Read Recog",Read4,OCTOBER,SPOOKY,BUFFER3,Buffer,5,6,Study,User,-,,Study/JOL,BUFFER,,1729,,,-1,-1,,,,1
63cfeeba5c3e8b7f34c76817,karsy090f7,"Mediated Recog Prolific",1,8,2023-05-08T20:26:20+00:00,16.163098096848,7,versionD_stim.csv,ReadVersion_Recog.csv,"Read Recog",Read4,BOTH,OUNCE,Study2,U,47,32,Study,User,-,,Study/JOL,"Study Phase",,15721,,,-1,-1,,,,0.481
63cfeeba5c3e8b7f34c76817,karsy090f7,"Mediated Recog Prolific",1,9,2023-05-08T20:26:28+00:00,7.2043080329895,7,versionD_stim.csv,ReadVersion_Recog.csv,"Read Recog",Read4,EYES,SMELL,Study2,M,10,48,Study,User,-,,Study/JOL,"Study Phase",,6596,,,-1,-1,,,,0.303
63cfeeba5c3e8b7f34c76817,karsy090f7,"Mediated Recog Prolific",1,10,2023-05-08T20:26:33+00:00,5.70343708992,7,versionD_stim.csv,ReadVersion_Recog.csv,"Read Recog",Read4,REALITY,ISLAND,Study2,M,9,35,Study,User,-,,Study/JOL,"Study Phase",,5258,,,-1,-1,,,,0.667
63cfeeba5c3e8b7f34c76817,karsy090f7,"Mediated Recog Prolific",1,11,2023-05-08T20:26:38+00:00,4.6276938915253,7,versionD_stim.csv,ReadVersion_Recog.csv,"Read Recog",Read4,SUMMER,SNOW,Study2,M,6,37,Study,User,-,,Study/JOL,"Study Phase",,4195,,,-1,-1,,,,0.571
63cfeeba5c3e8b7f34c76817,karsy090f7,"Mediated Recog Prolific",1,12,2023-05-08T20:26:42+00:00,4.206286907196,7,versionD_stim.csv,ReadVersion_Recog.csv,"Read Recog",Read4,ART,WOLF,Study2,U,38,28,Study,User,-,,Study/JOL,"Study Phase",,3776,,,-1,-1,,,,0.474
63cfeeba5c3e8b7f34c76817,karsy090f7,"Mediated Recog Prolific",1,13,2023-05-08T20:26:48+00:00,5.5882890224457,7,versionD_stim.csv,ReadVersion_Recog.csv,"Read Recog",Read4,CHERRY,RED,Study2,F,25,26,Study,User,-,,Study/JOL,"Study Phase",,5140,,,-1,-1,,,,0.577
63cfeeba5c3e8b7f34c76817,karsy090f7,"Mediated Recog Prolific",1,14,2023-05-08T20:26:52+00:00,4.4277241230011,7,versionD_stim.csv,ReadVersion_Recog.csv,"Read Recog",Read4,CASH,LEG,Study2,U,50,44,Study,User,-,,Study/JOL,"Study Phase",,3966,,,-1,-1,,,,0.45
63cfeeba5c3e8b7f34c76817,karsy090f7,"Mediated Recog Prolific",1,15,2023-05-08T20:26:57+00:00,5.0815939903259,7,versionD_stim.csv,ReadVersion_Recog.csv,"Read Recog",Read4,PANTS,COLLAR,Study2,M,8,50,Study,User,-,,Study/JOL,"Study Phase",,4615,,,-1,-1,,,,0.458
63cfeeba5c3e8b7f34c76817,karsy090f7,"Mediated Recog Prolific",1,16,2023-05-08T20:27:18+00:00,20.75327706337,7,versionD_stim.csv,ReadVersion_Recog.csv,"Read Recog",Read4,DEATH,BUSINESS,Study2,U,44,27,Study,User,-,,Study/JOL,"Study Phase",,20281,,,-1,-1,,,,0.078
63cfeeba5c3e8b7f34c76817,karsy090f7,"Mediated Recog Prolific",1,17,2023-05-08T20:27:25+00:00,6.6079819202423,7,versionD_stim.csv,ReadVersion_Recog.csv,"Read Recog",Read4,PUSH,CLUTTER,Study2,U,41,43,Study,User,-,,Study/JOL,"Study Phase",,6136,,,-1,-1,,,,0.548
63cfeeba5c3e8b7f34c76817,karsy090f7,"Mediated Recog Prolific",1,18,2023-05-08T20:27:27+00:00,2.3669588565826,7,versionD_stim.csv,ReadVersion_Recog.csv,"Read Recog",Read4,BLAZE,FIRE,Study2,F,26,9,Study,User,-,,Study/JOL,"Study Phase",,1926,,,-1,-1,,,,1
63cfeeba5c3e8b7f34c76817,karsy090f7,"Mediated Recog Prolific",1,19,2023-05-08T20:27:32+00:00,4.7160851955414,7,versionD_stim.csv,ReadVersion_Recog.csv,"Read Recog",Read4,SICK,HIDE,Study2,U,45,29,Study,User,-,,Study/JOL,"Study Phase",,4270,,,-1,-1,,,,0.318
63cfeeba5c3e8b7f34c76817,karsy090f7,"Mediated Recog Prolific",1,20,2023-05-08T20:27:36+00:00,3.9349248409271,7,versionD_stim.csv,ReadVersion_Recog.csv,"Read Recog",Read4,DIETARY,SACK,Study2,U,42,49,Study,User,-,,Study/JOL,"Study Phase",,3479,,,-1,-1,,,,0.444
63cfeeba5c3e8b7f34c76817,karsy090f7,"Mediated Recog Prolific",1,21,2023-05-08T20:27:40+00:00,4.2812631130219,7,versionD_stim.csv,ReadVersion_Recog.csv,"Read Recog",Read4,HEAVY,FEATHER,Study2,M,13,21,Study,User,-,,Study/JOL,"Study Phase",,3821,,,-1,-1,,,,0.5
63cfeeba5c3e8b7f34c76817,karsy090f7,"Mediated Recog Prolific",1,22,2023-05-08T20:27:44+00:00,4.2809309959412,7,versionD_stim.csv,ReadVersion_Recog.csv,"Read Recog",Read4,VALLEY,PEAK,Study2,M,18,36,Study,User,-,,Study/JOL,"Study Phase",,3822,,,-1,-1,,,,0.6
63cfeeba5c3e8b7f34c76817,karsy090f7,"Mediated Recog Prolific",1,23,2023-05-08T20:27:49+00:00,4.8847410678864,7,versionD_stim.csv,ReadVersion_Recog.csv,"Read Recog",Read4,CACTUS,PLANT,Study2,F,21,15,Study,User,-,,Study/JOL,"Study Phase",,4423,,,-1,-1,,,,0.609
63cfeeba5c3e8b7f34c76817,karsy090f7,"Mediated Recog Prolific",1,24,2023-05-08T20:27:55+00:00,5.9454779624939,7,versionD_stim.csv,ReadVersion_Recog.csv,"Read Recog",Read4,HORNET,STING,Study2,F,30,11,Study,User,-,,Study/JOL,"Study Phase",,5472,,,-1,-1,,,,0.714
63cfeeba5c3e8b7f34c76817,karsy090f7,"Mediated Recog Prolific",1,25,2023-05-08T20:28:07+00:00,12.20146894455,7,versionD_stim.csv,ReadVersion_Recog.csv,"Read Recog",Read4,ARTERY,BRONZE,Study2,U,48,23,Study,User,-,,Study/JOL,"Study Phase",,11763,,,-1,-1,,,,0.169
63cfeeba5c3e8b7f34c76817,karsy090f7,"Mediated Recog Prolific",1,26,2023-05-08T20:28:12+00:00,4.9313418865204,7,versionD_stim.csv,ReadVersion_Recog.csv,"Read Recog",Read4,WINDOW,KNOB,Study2,M,19,30,Study,User,-,,Study/JOL,"Study Phase",,4493,,,-1,-1,,,,1
63cfeeba5c3e8b7f34c76817,karsy090f7,"Mediated Recog Prolific",1,27,2023-05-08T20:28:18+00:00,6.2134261131287,7,versionD_stim.csv,ReadVersion_Recog.csv,"Read Recog",Read4,CHOP,CUT,Study2,F,22,7,Study,User,-,,Study/JOL,"Study Phase",,5781,,,-1,-1,,,,0.241
63cfeeba5c3e8b7f34c76817,karsy090f7,"Mediated Recog Prolific",1,28,2023-05-08T20:28:22+00:00,4.0068500041962,7,versionD_stim.csv,ReadVersion_Recog.csv,"Read Recog",Read4,SUGAR,RIDDLE,Study2,U,40,22,Study,User,-,,Study/JOL,"Study Phase",,3552,,,-1,-1,,,,0.444
63cfeeba5c3e8b7f34c76817,karsy090f7,"Mediated Recog Prolific",1,29,2023-05-08T20:28:28+00:00,5.3702020645142,7,versionD_stim.csv,ReadVersion_Recog.csv,"Read Recog",Read4,RAKE,SEED,Study2,M,14,16,Study,User,-,,Study/JOL,"Study Phase",,4831,,,-1,-1,,,,0.4
63cfeeba5c3e8b7f34c76817,karsy090f7,"Mediated Recog Prolific",1,30,2023-05-08T20:28:30+00:00,2.4473550319672,7,versionD_stim.csv,ReadVersion_Recog.csv,"Read Recog",Read4,RAZOR,MUSCLE,Study2,M,20,45,Study,User,-,,Study/JOL,"Study Phase",,1987,,,-1,-1,,,,1
63cfeeba5c3e8b7f34c76817,karsy090f7,"Mediated Recog Prolific",1,31,2023-05-08T20:28:34+00:00,4.2170279026031,7,versionD_stim.csv,ReadVersion_Recog.csv,"Read Recog",Read4,INCENSE,SMELL,Study2,F,28,24,Study,User,-,,Study/JOL,"Study Phase",,3759,,,-1,-1,,,,0.368
63cfeeba5c3e8b7f34c76817,karsy090f7,"Mediated Recog Prolific",1,32,2023-05-08T20:28:38+00:00,3.2134408950806,7,versionD_stim.csv,ReadVersion_Recog.csv,"Read Recog",Read4,BRIDGE,WATER,Study2,F,35,8,Study,User,-,,Study/JOL,"Study Phase",,2757,,,-1,-1,,,,0.429
63cfeeba5c3e8b7f34c76817,karsy090f7,"Mediated Recog Prolific",1,33,2023-05-08T20:28:42+00:00,4.1058449745178,7,versionD_stim.csv,ReadVersion_Recog.csv,"Read Recog",Read4,HERD,COW,Study2,F,33,41,Study,User,-,,Study/JOL,"Study Phase",,3654,,,-1,-1,,,,0.368
63cfeeba5c3e8b7f34c76817,karsy090f7,"Mediated Recog Prolific",1,34,2023-05-08T20:28:46+00:00,3.9688742160797,7,versionD_stim.csv,ReadVersion_Recog.csv,"Read Recog",Read4,MIRROR,CHILDREN,Study2,U,49,17,Study,User,-,,Study/JOL,"Study Phase",,3517,,,-1,-1,,,,0.444
63cfeeba5c3e8b7f34c76817,karsy090f7,"Mediated Recog Prolific",1,35,2023-05-08T20:28:49+00:00,3.834527015686,7,versionD_stim.csv,ReadVersion_Recog.csv,"Read Recog",Read4,SCHOOL,STOP,Study2,M,7,39,Study,User,-,,Study/JOL,"Study Phase",,3384,,,-1,-1,,,,0.353
63cfeeba5c3e8b7f34c76817,karsy090f7,"Mediated Recog Prolific",1,36,2023-05-08T20:28:54+00:00,4.5026278495789,7,versionD_stim.csv,ReadVersion_Recog.csv,"Read Recog",Read4,DOCUMENT,PAPER,Study2,F,27,19,Study,User,-,,Study/JOL,"Study Phase",,4044,,,-1,-1,,,,0.333
63cfeeba5c3e8b7f34c76817,karsy090f7,"Mediated Recog Prolific",1,37,2023-05-08T20:28:57+00:00,3.4273090362549,7,versionD_stim.csv,ReadVersion_Recog.csv,"Read Recog",Read4,ATTIRE,CLOTHES,Study2,F,24,14,Study,User,-,,Study/JOL,"Study Phase",,2976,,,-1,-1,,,,0.2
63cfeeba5c3e8b7f34c76817,karsy090f7,"Mediated Recog Prolific",1,38,2023-05-08T20:29:14+00:00,16.270169019699,7,versionD_stim.csv,ReadVersion_Recog.csv,"Read Recog",Read4,NURSE,LAWYER,Study2,M,11,31,Study,User,-,,Study/JOL,"Study Phase",,15807,,,-1,-1,,,,0.425
63cfeeba5c3e8b7f34c76817,karsy090f7,"Mediated Recog Prolific",1,39,2023-05-08T20:29:19+00:00,5.6151540279388,7,versionD_stim.csv,ReadVersion_Recog.csv,"Read Recog",Read4,GRILL,THIGH,Study2,M,17,38,Study,User,-,,Study/JOL,"Study Phase",,5155,,,-1,-1,,,,0.577
63cfeeba5c3e8b7f34c76817,karsy090f7,"Mediated Recog Prolific",1,40,2023-05-08T20:29:24+00:00,4.876091003418,7,versionD_stim.csv,ReadVersion_Recog.csv,"Read Recog",Read4,LEASE,TOIL,Study2,U,46,47,Study,User,-,,Study/JOL,"Study Phase",,4440,,,-1,-1,,,,0.435
63cfeeba5c3e8b7f34c76817,karsy090f7,"Mediated Recog Prolific",1,41,2023-05-08T20:29:28+00:00,4.2621240615845,7,versionD_stim.csv,ReadVersion_Recog.csv,"Read Recog",Read4,CHILL,COLD,Study2,F,32,40,Study,User,-,,Study/JOL,"Study Phase",,3826,,,-1,-1,,,,0.4
63cfeeba5c3e8b7f34c76817,karsy090f7,"Mediated Recog Prolific",1,42,2023-05-08T20:29:31+00:00,2.3979008197784,7,versionD_stim.csv,ReadVersion_Recog.csv,"Read Recog",Read4,OVEN,BASKET,Study2,M,16,13,Study,User,-,,Study/JOL,"Study Phase",,1965,,,-1,-1,,,,1
63cfeeba5c3e8b7f34c76817,karsy090f7,"Mediated Recog Prolific",1,43,2023-05-08T20:29:36+00:00,5.3560130596161,7,versionD_stim.csv,ReadVersion_Recog.csv,"Read Recog",Read4,KING,VASE,Study2,U,36,12,Study,User,-,,Study/JOL,"Study Phase",,4918,,,-1,-1,,,,0.52
63cfeeba5c3e8b7f34c76817,karsy090f7,"Mediated Recog Prolific",1,44,2023-05-08T20:29:41+00:00,4.4918050765991,7,versionD_stim.csv,ReadVersion_Recog.csv,"Read Recog",Read4,FEUD,FIGHT,Study2,F,31,20,Study,User,-,,Study/JOL,"Study Phase",,4036,,,-1,-1,,,,0.381
63cfeeba5c3e8b7f34c76817,karsy090f7,"Mediated Recog Prolific",1,45,2023-05-08T20:29:45+00:00,3.8921940326691,7,versionD_stim.csv,ReadVersion_Recog.csv,"Read Recog",Read4,SOAP,DRINK,Study2,M,12,10,Study,User,-,,Study/JOL,"Study Phase",,3436,,,-1,-1,,,,0.333
63cfeeba5c3e8b7f34c76817,karsy090f7,"Mediated Recog Prolific",1,46,2023-05-08T20:29:56+00:00,11.283266782761,7,versionD_stim.csv,ReadVersion_Recog.csv,"Read Recog",Read4,STRONG,ACCIDENT,Study2,U,39,42,Study,User,-,,Study/JOL,"Study Phase",,10822,,,-1,-1,,,,0.273
63cfeeba5c3e8b7f34c76817,karsy090f7,"Mediated Recog Prolific",1,47,2023-05-08T20:30:03+00:00,6.7785952091217,7,versionD_stim.csv,ReadVersion_Recog.csv,"Read Recog",Read4,BENCH,HORN,Study2,U,43,34,Study,User,-,,Study/JOL,"Study Phase",,6314,,,-1,-1,,,,0.219
63cfeeba5c3e8b7f34c76817,karsy090f7,"Mediated Recog Prolific",1,48,2023-05-08T20:30:08+00:00,5.7452077865601,7,versionD_stim.csv,ReadVersion_Recog.csv,"Read Recog",Read4,WASP,BUG,Study2,F,34,33,Study,User,-,,Study/JOL,"Study Phase",,5286,,,-1,-1,,,,0.444
63cfeeba5c3e8b7f34c76817,karsy090f7,"Mediated Recog Prolific",1,49,2023-05-08T20:30:13+00:00,4.7379350662231,7,versionD_stim.csv,ReadVersion_Recog.csv,"Read Recog",Read4,LEAGUE,BASEBALL,Study2,F,29,25,Study,User,-,,Study/JOL,"Study Phase",,4274,,,-1,-1,,,,0.455
63cfeeba5c3e8b7f34c76817,karsy090f7,"Mediated Recog Prolific",1,50,2023-05-08T20:30:15+00:00,1.9406909942627,7,versionD_stim.csv,ReadVersion_Recog.csv,"Read Recog",Read4,TRAP,CAVE,Study2,M,15,18,Study,User,-,,Study/JOL,"Study Phase",,1481,,,-1,-1,,,,1
63cfeeba5c3e8b7f34c76817,karsy090f7,"Mediated Recog Prolific",1,51,2023-05-08T20:30:19+00:00,3.9407570362091,7,versionD_stim.csv,ReadVersion_Recog.csv,"Read Recog",Read4,HAPPY,CAR,Study2,U,37,46,Study,User,-,,Study/JOL,"Study Phase",,3486,,,-1,-1,,,,0.333
63cfeeba5c3e8b7f34c76817,karsy090f7,"Mediated Recog Prolific",1,52,2023-05-08T20:30:23+00:00,4.112154006958,7,versionD_stim.csv,ReadVersion_Recog.csv,"Read Recog",Read4,CHISEL,HAMMER,Study2,F,23,51,Study,User,-,,Study/JOL,"Study Phase",,3658,,,-1,-1,,,,0.474
63cfeeba5c3e8b7f34c76817,karsy090f7,"Mediated Recog Prolific",1,53,2023-05-08T20:30:31+00:00,7.6559529304504,7,versionD_stim.csv,ReadVersion_Recog.csv,"Read Recog",Read4,CARROT,POTATO,BUFFER4,Buffer,51,53,Study,User,-,,Study/JOL,BUFFER2,,7191,,,-1,-1,,,,0.25
63cfeeba5c3e8b7f34c76817,karsy090f7,"Mediated Recog Prolific",1,54,2023-05-08T20:30:34+00:00,3.5797100067139,7,versionD_stim.csv,ReadVersion_Recog.csv,"Read Recog",Read4,SHRIMP,FISH,BUFFER4,Buffer,53,54,Study,User,-,,Study/JOL,BUFFER2,,3124,,,-1,-1,,,,1
63cfeeba5c3e8b7f34c76817,karsy090f7,"Mediated Recog Prolific",1,55,2023-05-08T20:30:38+00:00,3.4624950885773,7,versionD_stim.csv,ReadVersion_Recog.csv,"Read Recog",Read4,ICE,FROZEN,BUFFER4,Buffer,54,52,Study,User,-,,Study/JOL,BUFFER2,,3004,,,-1,-1,,,,0.313
63cfeeba5c3e8b7f34c76817,karsy090f7,"Mediated Recog Prolific",1,56,2023-05-08T20:30:42+00:00,4.4833130836487,7,versionD_stim.csv,ReadVersion_Recog.csv,"Read Recog",Read4,NOODLE,STRING,BUFFER4,Buffer,52,55,Study,User,-,,Study/JOL,BUFFER2,,4028,,,-1,-1,,,,0.333
63cfeeba5c3e8b7f34c76817,karsy090f7,"Mediated Recog Prolific",1,57,2023-05-08T20:30:46+00:00,4.0788908004761,7,versionD_stim.csv,ReadVersion_Recog.csv,"Read Recog",Read4,CAMP,ADVENTURE,BUFFER4,Buffer,55,56,Study,User,-,,Study/JOL,BUFFER2,,3623,,,-1,-1,,,,0.526
63cfeeba5c3e8b7f34c76817,karsy090f7,"Mediated Recog Prolific",1,58,2023-05-08T20:30:50+00:00,3.869588136673,7,versionD_stim.csv,ReadVersion_Recog.csv,"Read Recog",Read4,,,,,,0,Instruct,User,-,"You have completed this section. Please press Enter.",Filler_Instruction,Instruct2,,3415,,,-1,-1,,,,0.389
63cfeeba5c3e8b7f34c76817,karsy090f7,"Mediated Recog Prolific",1,59,2023-05-08T20:32:51+00:00,120.78607392311,7,versionD_stim.csv,ReadVersion_Recog.csv,"Read Recog",Read4,,,,,,0,FreeRecall,120,120,"Please list the 50 US states in alphabetical order. The task will automatically advance to the next screen after two minutes.",,Filler1,,120001,"Alabama, Alaska, Arizona, Arkansas, California, Colorado, Connecticut, Delaware, Florida, Georgia, Hawaii, Idaho, Illinois, Indiana, Iowa, Kansas, Kentucky, Louisiana, Maine, Maryland, Massaschusetts, Michingan, Minnesota, Missippi, Missouri, Montana, Nebraska, Nevada, New Hampshire, New Jersye,",0,22209,119403,0,0,,0.898
63cfeeba5c3e8b7f34c76817,karsy090f7,"Mediated Recog Prolific",1,60,2023-05-08T20:33:03+00:00,11.861446142197,7,versionD_stim.csv,ReadVersion_Recog.csv,"Read Recog",Read4,,,,,,0,Instruct,User,10,"Your memory will now be tested. You will be presented with a series of words that may or may not have been previously presented alongside another word. If the word on the screen was previously studied, please select YES. If the word was not studied, select NO. PLEASE DO NOT SKIP ITEMS! Click next when you are ready to begin.",,Instruc7982154d,,11083,,,-1,-1,,,,1
63cfeeba5c3e8b7f34c76817,karsy090f7,"Mediated Recog Prolific",1,61,2023-05-08T20:33:08+00:00,4.8681688308716,7,versionD_stim.csv,ReadVersion_Recog.csv,"Read Recog",Read4,,HAND,RECOG,Control,104,107,Likert,User,1,"Was this item previously studied?",PRESENTED,Recog,1::2,4413,NO,33.333333333333,-1,-1,0,0,,0.435
63cfeeba5c3e8b7f34c76817,karsy090f7,"Mediated Recog Prolific",1,62,2023-05-08T20:33:13+00:00,5.3712530136108,7,versionD_stim.csv,ReadVersion_Recog.csv,"Read Recog",Read4,,WHEEL,RECOG,Control,69,143,Likert,User,1,"Was this item previously studied?",PRESENTED,Recog,1::2,4772,NO,0,-1,-1,0,0,,0.333
63cfeeba5c3e8b7f34c76817,karsy090f7,"Mediated Recog Prolific",1,63,2023-05-08T20:33:18+00:00,4.7445130348206,7,versionD_stim.csv,ReadVersion_Recog.csv,"Read Recog",Read4,,TRASH,RECOG,Control,76,104,Likert,User,1,"Was this item previously studied?",PRESENTED,Recog,1::2,4288,NO,0,-1,-1,0,0,,0.682
63cfeeba5c3e8b7f34c76817,karsy090f7,"Mediated Recog Prolific",1,64,2023-05-08T20:33:27+00:00,8.9774770736694,7,versionD_stim.csv,ReadVersion_Recog.csv,"Read Recog",Read4,,COLLAR,RECOG,Presented,108,133,Likert,User,1,"Was this item previously studied?",PRESENTED,Recog,1::2,8526,NO,25,-1,-1,0,0,,0.209
63cfeeba5c3e8b7f34c76817,karsy090f7,"Mediated Recog Prolific",1,65,2023-05-08T20:33:29+00:00,2.3800559043884,7,versionD_stim.csv,ReadVersion_Recog.csv,"Read Recog",Read4,,FISH,RECOG,Control,90,102,Likert,User,1,"Was this item previously studied?",PRESENTED,Recog,1::2,1944,YES,28.571428571429,-1,-1,0,0,,1
63cfeeba5c3e8b7f34c76817,karsy090f7,"Mediated Recog Prolific",1,66,2023-05-08T20:33:31+00:00,2.1707079410553,7,versionD_stim.csv,ReadVersion_Recog.csv,"Read Recog",Read4,,CARPET,RECOG,Control,70,115,Likert,User,1,"Was this item previously studied?",PRESENTED,Recog,1::2,1738,NO,0,-1,-1,0,0,,1
63cfeeba5c3e8b7f34c76817,karsy090f7,"Mediated Recog Prolific",1,67,2023-05-08T20:33:36+00:00,5.0400540828705,7,versionD_stim.csv,ReadVersion_Recog.csv,"Read Recog",Read4,,LOVE,RECOG,Control,86,63,Likert,User,1,"Was this item previously studied?",CONTROL,Recog,1::2,4612,NO,33.333333333333,-1,-1,0,0,,0.5
63cfeeba5c3e8b7f34c76817,karsy090f7,"Mediated Recog Prolific",1,68,2023-05-08T20:33:40+00:00,3.9142210483551,7,versionD_stim.csv,ReadVersion_Recog.csv,"Read Recog",Read4,,DARK,RECOG,Control,73,135,Likert,User,1,"Was this item previously studied?",PRESENTED,Recog,1::2,3479,NO,0,-1,-1,0,0,,1
63cfeeba5c3e8b7f34c76817,karsy090f7,"Mediated Recog Prolific",1,69,2023-05-08T20:33:49+00:00,8.6100778579712,7,versionD_stim.csv,ReadVersion_Recog.csv,"Read Recog",Read4,,DANCE,RECOG,Control,68,117,Likert,User,1,"Was this item previously studied?",PRESENTED,Recog,1::2,8175,NO,28.571428571429,-1,-1,0,0,,0.268
63cfeeba5c3e8b7f34c76817,karsy090f7,"Mediated Recog Prolific",1,70,2023-05-08T20:33:54+00:00,5.3487272262573,7,versionD_stim.csv,ReadVersion_Recog.csv,"Read Recog",Read4,,BOTTLE,RECOG,Control,71,120,Likert,User,1,"Was this item previously studied?",PRESENTED,Recog,1::2,4775,NO,25,-1,-1,0,0,,0.333
63cfeeba5c3e8b7f34c76817,karsy090f7,"Mediated Recog Prolific",1,71,2023-05-08T20:34:20+00:00,25.924366950989,7,versionD_stim.csv,ReadVersion_Recog.csv,"Read Recog",Read4,,FEATHER,RECOG,Presented,113,138,Likert,User,1,"Was this item previously studied?",PRESENTED,Recog,1::2,25133,YES,20,-1,-1,0,0,,0.071
63cfeeba5c3e8b7f34c76817,karsy090f7,"Mediated Recog Prolific",1,72,2023-05-08T20:34:29+00:00,8.7392609119415,7,versionD_stim.csv,ReadVersion_Recog.csv,"Read Recog",Read4,,CLEAN,RECOG,Control,83,57,Likert,User,1,"Was this item previously studied?",CONTROL,Recog,1::2,8275,NO,28.571428571429,-1,-1,0,0,,0.333
63cfeeba5c3e8b7f34c76817,karsy090f7,"Mediated Recog Prolific",1,73,2023-05-08T20:34:34+00:00,5.1307060718536,7,versionD_stim.csv,ReadVersion_Recog.csv,"Read Recog",Read4,,LEG,RECOG,Presented,150,69,Likert,User,1,"Was this item previously studied?",CONTROL,Recog,1::2,4666,YES,33.333333333333,-1,-1,0,0,,0.583
63cfeeba5c3e8b7f34c76817,karsy090f7,"Mediated Recog Prolific",1,74,2023-05-08T20:34:37+00:00,2.9108638763428,7,versionD_stim.csv,ReadVersion_Recog.csv,"Read Recog",Read4,,FLOWER,RECOG,Control,89,67,Likert,User,1,"Was this item previously studied?",CONTROL,Recog,1::2,2454,YES,22.222222222222,-1,-1,0,0,,1
63cfeeba5c3e8b7f34c76817,karsy090f7,"Mediated Recog Prolific",1,75,2023-05-08T20:34:39+00:00,2.2656559944153,7,versionD_stim.csv,ReadVersion_Recog.csv,"Read Recog",Read4,,QUIET,RECOG,Control,63,134,Likert,User,1,"Was this item previously studied?",PRESENTED,Recog,1::2,1812,YES,25,-1,-1,0,0,,1
63cfeeba5c3e8b7f34c76817,karsy090f7,"Mediated Recog Prolific",1,76,2023-05-08T20:34:46+00:00,6.6598401069641,7,versionD_stim.csv,ReadVersion_Recog.csv,"Read Recog",Read4,,HEAD,RECOG,Control,78,118,Likert,User,1,"Was this item previously studied?",PRESENTED,Recog,1::2,6196,NO,0,-1,-1,0,0,,0.516
63cfeeba5c3e8b7f34c76817,karsy090f7,"Mediated Recog Prolific",1,77,2023-05-08T20:34:49+00:00,2.7364509105682,7,versionD_stim.csv,ReadVersion_Recog.csv,"Read Recog",Read4,,SILK,RECOG,Control,65,61,Likert,User,1,"Was this item previously studied?",CONTROL,Recog,1::2,2280,YES,28.571428571429,-1,-1,0,0,,0.583
63cfeeba5c3e8b7f34c76817,karsy090f7,"Mediated Recog Prolific",1,78,2023-05-08T20:34:53+00:00,3.9192070960999,7,versionD_stim.csv,ReadVersion_Recog.csv,"Read Recog",Read4,,SENTENCE,RECOG,Control,82,141,Likert,User,1,"Was this item previously studied?",PRESENTED,Recog,1::2,3461,YES,18.181818181818,-1,-1,0,0,,1
63cfeeba5c3e8b7f34c76817,karsy090f7,"Mediated Recog Prolific",1,79,2023-05-08T20:34:55+00:00,2.0150408744812,7,versionD_stim.csv,ReadVersion_Recog.csv,"Read Recog",Read4,,OUNCE,RECOG,Presented,147,77,Likert,User,1,"Was this item previously studied?",CONTROL,Recog,1::2,1561,YES,25,-1,-1,0,0,,1
63cfeeba5c3e8b7f34c76817,karsy090f7,"Mediated Recog Prolific",1,80,2023-05-08T20:35:02+00:00,7.5197842121124,7,versionD_stim.csv,ReadVersion_Recog.csv,"Read Recog",Read4,,MONEY,RECOG,Control,77,80,Likert,User,1,"Was this item previously studied?",CONTROL,Recog,1::2,7063,NO,28.571428571429,-1,-1,0,0,,0.639
63cfeeba5c3e8b7f34c76817,karsy090f7,"Mediated Recog Prolific",1,81,2023-05-08T20:35:05+00:00,2.7306399345398,7,versionD_stim.csv,ReadVersion_Recog.csv,"Read Recog",Read4,,BIRD,RECOG,Control,81,85,Likert,User,1,"Was this item previously studied?",CONTROL,Recog,1::2,2241,YES,0,-1,-1,0,0,,1
63cfeeba5c3e8b7f34c76817,karsy090f7,"Mediated Recog Prolific",1,82,2023-05-08T20:35:10+00:00,5.6417348384857,7,versionD_stim.csv,ReadVersion_Recog.csv,"Read Recog",Read4,,DRINK,RECOG,Presented,112,78,Likert,User,1,"Was this item previously studied?",CONTROL,Recog,1::2,5182,YES,0,-1,-1,0,0,,0.654
63cfeeba5c3e8b7f34c76817,karsy090f7,"Mediated Recog Prolific",1,83,2023-05-08T20:35:13+00:00,2.1315681934357,7,versionD_stim.csv,ReadVersion_Recog.csv,"Read Recog",Read4,,BRONZE,RECOG,Presented,148,91,Likert,User,1,"Was this item previously studied?",CONTROL,Recog,1::2,1700,YES,22.222222222222,-1,-1,0,0,,1
63cfeeba5c3e8b7f34c76817,karsy090f7,"Mediated Recog Prolific",1,84,2023-05-08T20:35:21+00:00,8.7822258472443,7,versionD_stim.csv,ReadVersion_Recog.csv,"Read Recog",Read4,,COTTON,RECOG,Control,75,124,Likert,User,1,"Was this item previously studied?",PRESENTED,Recog,1::2,8341,NO,25,-1,-1,0,0,,0.357
63cfeeba5c3e8b7f34c76817,karsy090f7,"Mediated Recog Prolific",1,85,2023-05-08T20:35:28+00:00,6.3319640159607,7,versionD_stim.csv,ReadVersion_Recog.csv,"Read Recog",Read4,,HAMMER,RECOG,Presented,123,103,Likert,User,1,"Was this item previously studied?",PRESENTED,Recog,1::2,5884,YES,22.222222222222,-1,-1,0,0,,0.7
63cfeeba5c3e8b7f34c76817,karsy090f7,"Mediated Recog Prolific",1,86,2023-05-08T20:35:31+00:00,3.0142209529877,7,versionD_stim.csv,ReadVersion_Recog.csv,"Read Recog",Read4,,STRIPES,RECOG,Control,61,66,Likert,User,1,"Was this item previously studied?",CONTROL,Recog,1::2,2552,NO,0,-1,-1,0,0,,1
63cfeeba5c3e8b7f34c76817,karsy090f7,"Mediated Recog Prolific",1,87,2023-05-08T20:35:33+00:00,2.0549139976501,7,versionD_stim.csv,ReadVersion_Recog.csv,"Read Recog",Read4,,ACCIDENT,RECOG,Presented,139,110,Likert,User,1,"Was this item previously studied?",PRESENTED,Recog,1::2,1601,YES,18.181818181818,-1,-1,0,0,,1
63cfeeba5c3e8b7f34c76817,karsy090f7,"Mediated Recog Prolific",1,88,2023-05-08T20:35:34+00:00,1.6326971054077,7,versionD_stim.csv,ReadVersion_Recog.csv,"Read Recog",Read4,,STEAK,RECOG,Control,93,105,Likert,User,1,"Was this item previously studied?",PRESENTED,Recog,1::2,1179,NO,0,-1,-1,0,0,,1
63cfeeba5c3e8b7f34c76817,karsy090f7,"Mediated Recog Prolific",1,89,2023-05-08T20:35:37+00:00,2.2126150131226,7,versionD_stim.csv,ReadVersion_Recog.csv,"Read Recog",Read4,,PLANT,RECOG,Control,80,96,Likert,User,1,"Was this item previously studied?",CONTROL,Recog,1::2,1750,YES,0,-1,-1,0,0,,1
63cfeeba5c3e8b7f34c76817,karsy090f7,"Mediated Recog Prolific",1,90,2023-05-08T20:35:47+00:00,10.185963869095,7,versionD_stim.csv,ReadVersion_Recog.csv,"Read Recog",Read4,,BANG,RECOG,Control,105,123,Likert,User,1,"Was this item previously studied?",PRESENTED,Recog,1::2,9723,NO,33.333333333333,-1,-1,0,0,,0.388
63cfeeba5c3e8b7f34c76817,karsy090f7,"Mediated Recog Prolific",1,91,2023-05-08T20:35:54+00:00,7.4808402061462,7,versionD_stim.csv,ReadVersion_Recog.csv,"Read Recog",Read4,,HIDE,RECOG,Presented,145,142,Likert,User,1,"Was this item previously studied?",PRESENTED,Recog,1::2,7041,YES,28.571428571429,-1,-1,0,0,,0.528
63cfeeba5c3e8b7f34c76817,karsy090f7,"Mediated Recog Prolific",1,92,2023-05-08T20:36:07+00:00,12.347200870514,7,versionD_stim.csv,ReadVersion_Recog.csv,"Read Recog",Read4,,FIRE,RECOG,Presented,126,73,Likert,User,1,"Was this item previously studied?",CONTROL,Recog,1::2,11889,NO,0,-1,-1,0,0,,0.267
63cfeeba5c3e8b7f34c76817,karsy090f7,"Mediated Recog Prolific",1,93,2023-05-08T20:36:09+00:00,1.9524941444397,7,versionD_stim.csv,ReadVersion_Recog.csv,"Read Recog",Read4,,SACK,RECOG,Presented,142,137,Likert,User,1,"Was this item previously studied?",PRESENTED,Recog,1::2,1489,YES,28.571428571429,-1,-1,0,0,,1
63cfeeba5c3e8b7f34c76817,karsy090f7,"Mediated Recog Prolific",1,94,2023-05-08T20:36:11+00:00,2.0257999897003,7,versionD_stim.csv,ReadVersion_Recog.csv,"Read Recog",Read4,,SEED,RECOG,Presented,114,88,Likert,User,1,"Was this item previously studied?",CONTROL,Recog,1::2,1563,YES,28.571428571429,-1,-1,0,0,,1
63cfeeba5c3e8b7f34c76817,karsy090f7,"Mediated Recog Prolific",1,95,2023-05-08T20:36:13+00:00,2.104945898056,7,versionD_stim.csv,ReadVersion_Recog.csv,"Read Recog",Read4,,BUSINESS,RECOG,Presented,144,128,Likert,User,1,"Was this item previously studied?",PRESENTED,Recog,1::2,1651,YES,36.363636363636,-1,-1,0,0,,1
63cfeeba5c3e8b7f34c76817,karsy090f7,"Mediated Recog Prolific",1,96,2023-05-08T20:36:15+00:00,1.8881249427795,7,versionD_stim.csv,ReadVersion_Recog.csv,"Read Recog",Read4,,CAVE,RECOG,Presented,115,144,Likert,User,1,"Was this item previously studied?",PRESENTED,Recog,1::2,1435,NO,0,-1,-1,0,0,,1
63cfeeba5c3e8b7f34c76817,karsy090f7,"Mediated Recog Prolific",1,97,2023-05-08T20:36:17+00:00,2.7632720470428,7,versionD_stim.csv,ReadVersion_Recog.csv,"Read Recog",Read4,,PIE,RECOG,Control,64,145,Likert,User,1,"Was this item previously studied?",PRESENTED,Recog,1::2,1835,NO,0,-1,-1,0,0,,1
63cfeeba5c3e8b7f34c76817,karsy090f7,"Mediated Recog Prolific",1,98,2023-05-08T20:36:21+00:00,3.5888171195984,7,versionD_stim.csv,ReadVersion_Recog.csv,"Read Recog",Read4,,THIGH,RECOG,Presented,117,109,Likert,User,1,"Was this item previously studied?",PRESENTED,Recog,1::2,3133,YES,0,-1,-1,0,0,,1
63cfeeba5c3e8b7f34c76817,karsy090f7,"Mediated Recog Prolific",1,99,2023-05-08T20:36:23+00:00,2.1804678440094,7,versionD_stim.csv,ReadVersion_Recog.csv,"Read Recog",Read4,,BOUNCE,RECOG,Control,67,113,Likert,User,1,"Was this item previously studied?",PRESENTED,Recog,1::2,1723,YES,22.222222222222,-1,-1,0,0,,1
63cfeeba5c3e8b7f34c76817,karsy090f7,"Mediated Recog Prolific",1,100,2023-05-08T20:36:26+00:00,2.6410789489746,7,versionD_stim.csv,ReadVersion_Recog.csv,"Read Recog",Read4,,PLANT,RECOG,Presented,121,58,Likert,User,1,"Was this item previously studied?",CONTROL,Recog,1::2,2187,YES,0,-1,-1,0,0,,1
63cfeeba5c3e8b7f34c76817,karsy090f7,"Mediated Recog Prolific",1,101,2023-05-08T20:36:31+00:00,5.6650850772858,7,versionD_stim.csv,ReadVersion_Recog.csv,"Read Recog",Read4,,WATER,RECOG,Presented,135,83,Likert,User,1,"Was this item previously studied?",CONTROL,Recog,1::2,5209,YES,25,-1,-1,0,0,,0.63
63cfeeba5c3e8b7f34c76817,karsy090f7,"Mediated Recog Prolific",1,102,2023-05-08T20:36:34+00:00,2.2751550674438,7,versionD_stim.csv,ReadVersion_Recog.csv,"Read Recog",Read4,,MUSCLE,RECOG,Presented,120,95,Likert,User,1,"Was this item previously studied?",CONTROL,Recog,1::2,1819,YES,22.222222222222,-1,-1,0,0,,1
63cfeeba5c3e8b7f34c76817,karsy090f7,"Mediated Recog Prolific",1,103,2023-05-08T20:36:36+00:00,2.0930218696594,7,versionD_stim.csv,ReadVersion_Recog.csv,"Read Recog",Read4,,VASE,RECOG,Presented,136,121,Likert,User,1,"Was this item previously studied?",PRESENTED,Recog,1::2,1639,YES,28.571428571429,-1,-1,0,0,,1
63cfeeba5c3e8b7f34c76817,karsy090f7,"Mediated Recog Prolific",1,104,2023-05-08T20:36:38+00:00,2.0905721187592,7,versionD_stim.csv,ReadVersion_Recog.csv,"Read Recog",Read4,,BUG,RECOG,Presented,134,99,Likert,User,1,"Was this item previously studied?",CONTROL,Recog,1::2,1626,YES,0,-1,-1,0,0,,1
63cfeeba5c3e8b7f34c76817,karsy090f7,"Mediated Recog Prolific",1,105,2023-05-08T20:36:41+00:00,2.6868450641632,7,versionD_stim.csv,ReadVersion_Recog.csv,"Read Recog",Read4,,CUT,RECOG,Presented,122,90,Likert,User,1,"Was this item previously studied?",CONTROL,Recog,1::2,2229,NO,0,-1,-1,0,0,,1
63cfeeba5c3e8b7f34c76817,karsy090f7,"Mediated Recog Prolific",1,106,2023-05-08T20:36:43+00:00,2.3316957950592,7,versionD_stim.csv,ReadVersion_Recog.csv,"Read Recog",Read4,,COLD,RECOG,Presented,132,87,Likert,User,1,"Was this item previously studied?",CONTROL,Recog,1::2,1877,NO,33.333333333333,-1,-1,0,0,,1
63cfeeba5c3e8b7f34c76817,karsy090f7,"Mediated Recog Prolific",1,107,2023-05-08T20:36:48+00:00,4.9830181598663,7,versionD_stim.csv,ReadVersion_Recog.csv,"Read Recog",Read4,,CLOTHES,RECOG,Presented,124,125,Likert,User,1,"Was this item previously studied?",PRESENTED,Recog,1::2,4526,YES,40,-1,-1,0,0,,0.609
63cfeeba5c3e8b7f34c76817,karsy090f7,"Mediated Recog Prolific",1,108,2023-05-08T20:36:50+00:00,2.1787328720093,7,versionD_stim.csv,ReadVersion_Recog.csv,"Read Recog",Read4,,LAWYER,RECOG,Presented,111,79,Likert,User,1,"Was this item previously studied?",CONTROL,Recog,1::2,1712,YES,44.444444444444,-1,-1,0,0,,1
63cfeeba5c3e8b7f34c76817,karsy090f7,"Mediated Recog Prolific",1,109,2023-05-08T20:36:53+00:00,2.8046860694885,7,versionD_stim.csv,ReadVersion_Recog.csv,"Read Recog",Read4,,ISLAND,RECOG,Presented,109,119,Likert,User,1,"Was this item previously studied?",PRESENTED,Recog,1::2,2346,NO,25,-1,-1,0,0,,1
63cfeeba5c3e8b7f34c76817,karsy090f7,"Mediated Recog Prolific",1,110,2023-05-08T20:36:55+00:00,1.8056869506836,7,versionD_stim.csv,ReadVersion_Recog.csv,"Read Recog",Read4,,CLUTTER,RECOG,Presented,141,108,Likert,User,1,"Was this item previously studied?",PRESENTED,Recog,1::2,1343,YES,20,-1,-1,0,0,,1
63cfeeba5c3e8b7f34c76817,karsy090f7,"Mediated Recog Prolific",1,111,2023-05-08T20:36:57+00:00,2.3136930465698,7,versionD_stim.csv,ReadVersion_Recog.csv,"Read Recog",Read4,,TOIL,RECOG,Presented,146,100,Likert,User,1,"Was this item previously studied?",CONTROL,Recog,1::2,1856,NO,33.333333333333,-1,-1,0,0,,1
63cfeeba5c3e8b7f34c76817,karsy090f7,"Mediated Recog Prolific",1,112,2023-05-08T20:36:59+00:00,1.8885469436646,7,versionD_stim.csv,ReadVersion_Recog.csv,"Read Recog",Read4,,FICTION,RECOG,Control,99,89,Likert,User,1,"Was this item previously studied?",CONTROL,Recog,1::2,1421,NO,22.222222222222,-1,-1,0,0,,1
63cfeeba5c3e8b7f34c76817,karsy090f7,"Mediated Recog Prolific",1,113,2023-05-08T20:37:01+00:00,2.1217470169067,7,versionD_stim.csv,ReadVersion_Recog.csv,"Read Recog",Read4,,PEAK,RECOG,Presented,118,146,Likert,User,1,"Was this item previously studied?",PRESENTED,Recog,1::2,1665,YES,28.571428571429,-1,-1,0,0,,1
63cfeeba5c3e8b7f34c76817,karsy090f7,"Mediated Recog Prolific",1,114,2023-05-08T20:37:03+00:00,1.8927290439606,7,versionD_stim.csv,ReadVersion_Recog.csv,"Read Recog",Read4,,DONKEY,RECOG,Control,85,131,Likert,User,1,"Was this item previously studied?",PRESENTED,Recog,1::2,1433,NO,25,-1,-1,0,0,,1
63cfeeba5c3e8b7f34c76817,karsy090f7,"Mediated Recog Prolific",1,115,2023-05-08T20:37:05+00:00,2.0558340549469,7,versionD_stim.csv,ReadVersion_Recog.csv,"Read Recog",Read4,,CHILDREN,RECOG,Presented,149,98,Likert,User,1,"Was this item previously studied?",CONTROL,Recog,1::2,1589,YES,18.181818181818,-1,-1,0,0,,1
63cfeeba5c3e8b7f34c76817,karsy090f7,"Mediated Recog Prolific",1,116,2023-05-08T20:37:08+00:00,2.5211980342865,7,versionD_stim.csv,ReadVersion_Recog.csv,"Read Recog",Read4,,SMELL,RECOG,Presented,110,74,Likert,User,1,"Was this item previously studied?",CONTROL,Recog,1::2,2061,NO,0,-1,-1,0,0,,1
63cfeeba5c3e8b7f34c76817,karsy090f7,"Mediated Recog Prolific",1,117,2023-05-08T20:37:14+00:00,6.9438738822937,7,versionD_stim.csv,ReadVersion_Recog.csv,"Read Recog",Read4,,SHAKE,RECOG,Control,98,111,Likert,User,1,"Was this item previously studied?",PRESENTED,Recog,1::2,5004,NO,0,-1,-1,0,0,,0.538
63cfeeba5c3e8b7f34c76817,karsy090f7,"Mediated Recog Prolific",1,118,2023-05-08T20:37:24+00:00,9.212170124054,7,versionD_stim.csv,ReadVersion_Recog.csv,"Read Recog",Read4,,RED,RECOG,Presented,125,65,Likert,User,1,"Was this item previously studied?",CONTROL,Recog,1::2,8768,YES,33.333333333333,-1,-1,0,0,,0.455
63cfeeba5c3e8b7f34c76817,karsy090f7,"Mediated Recog Prolific",1,119,2023-05-08T20:37:33+00:00,8.8563878536224,7,versionD_stim.csv,ReadVersion_Recog.csv,"Read Recog",Read4,,STOP,RECOG,Presented,107,94,Likert,User,1,"Was this item previously studied?",CONTROL,Recog,1::2,8380,YES,28.571428571429,-1,-1,0,0,,0.476
63cfeeba5c3e8b7f34c76817,karsy090f7,"Mediated Recog Prolific",1,120,2023-05-08T20:37:35+00:00,2.0105781555176,7,versionD_stim.csv,ReadVersion_Recog.csv,"Read Recog",Read4,,CAR,RECOG,Presented,137,93,Likert,User,1,"Was this item previously studied?",CONTROL,Recog,1::2,1553,NO,0,-1,-1,0,0,,1
63cfeeba5c3e8b7f34c76817,karsy090f7,"Mediated Recog Prolific",1,121,2023-05-08T20:37:37+00:00,2.2207889556885,7,versionD_stim.csv,ReadVersion_Recog.csv,"Read Recog",Read4,,SMELL,RECOG,Presented,128,140,Likert,User,1,"Was this item previously studied?",PRESENTED,Recog,1::2,1761,YES,25,-1,-1,0,0,,1
63cfeeba5c3e8b7f34c76817,karsy090f7,"Mediated Recog Prolific",1,122,2023-05-08T20:37:45+00:00,8.3517520427704,7,versionD_stim.csv,ReadVersion_Recog.csv,"Read Recog",Read4,,COW,RECOG,Presented,133,136,Likert,User,1,"Was this item previously studied?",PRESENTED,Recog,1::2,7887,YES,0,-1,-1,0,0,,0.5
63cfeeba5c3e8b7f34c76817,karsy090f7,"Mediated Recog Prolific",1,123,2023-05-08T20:37:54+00:00,9.1011478900909,7,versionD_stim.csv,ReadVersion_Recog.csv,"Read Recog",Read4,,CLOTH,RECOG,Control,92,97,Likert,User,1,"Was this item previously studied?",CONTROL,Recog,1::2,8631,NO,28.571428571429,-1,-1,0,0,,0.364
63cfeeba5c3e8b7f34c76817,karsy090f7,"Mediated Recog Prolific",1,124,2023-05-08T20:38:06+00:00,11.526037931442,7,versionD_stim.csv,ReadVersion_Recog.csv,"Read Recog",Read4,,HAIR,RECOG,Control,74,116,Likert,User,1,"Was this item previously studied?",PRESENTED,Recog,1::2,11061,NO,0,-1,-1,0,0,,0.214
63cfeeba5c3e8b7f34c76817,karsy090f7,"Mediated Recog Prolific",1,125,2023-05-08T20:38:08+00:00,2.1185400485992,7,versionD_stim.csv,ReadVersion_Recog.csv,"Read Recog",Read4,,DRINK,RECOG,Control,87,130,Likert,User,1,"Was this item previously studied?",PRESENTED,Recog,1::2,1651,YES,0,-1,-1,0,0,,1
63cfeeba5c3e8b7f34c76817,karsy090f7,"Mediated Recog Prolific",1,126,2023-05-08T20:38:13+00:00,5.0149900913239,7,versionD_stim.csv,ReadVersion_Recog.csv,"Read Recog",Read4,,RIDDLE,RECOG,Presented,140,126,Likert,User,1,"Was this item previously studied?",PRESENTED,Recog,1::2,4557,YES,22.222222222222,-1,-1,0,0,,0.609
63cfeeba5c3e8b7f34c76817,karsy090f7,"Mediated Recog Prolific",1,127,2023-05-08T20:38:15+00:00,1.8668639659882,7,versionD_stim.csv,ReadVersion_Recog.csv,"Read Recog",Read4,,KEYS,RECOG,Control,96,70,Likert,User,1,"Was this item previously studied?",CONTROL,Recog,1::2,1411,YES,57.142857142857,-1,-1,0,0,,1
63cfeeba5c3e8b7f34c76817,karsy090f7,"Mediated Recog Prolific",1,128,2023-05-08T20:38:17+00:00,2.3215849399567,7,versionD_stim.csv,ReadVersion_Recog.csv,"Read Recog",Read4,,STING,RECOG,Presented,130,92,Likert,User,1,"Was this item previously studied?",CONTROL,Recog,1::2,1868,YES,25,-1,-1,0,0,,1
63cfeeba5c3e8b7f34c76817,karsy090f7,"Mediated Recog Prolific",1,129,2023-05-08T20:38:23+00:00,5.6307210922241,7,versionD_stim.csv,ReadVersion_Recog.csv,"Read Recog",Read4,,BASEBALL,RECOG,Presented,129,62,Likert,User,1,"Was this item previously studied?",CONTROL,Recog,1::2,5175,YES,18.181818181818,-1,-1,0,0,,0.615
63cfeeba5c3e8b7f34c76817,karsy090f7,"Mediated Recog Prolific",1,130,2023-05-08T20:38:33+00:00,10.381468057632,7,versionD_stim.csv,ReadVersion_Recog.csv,"Read Recog",Read4,,BASKET,RECOG,Presented,116,59,Likert,User,1,"Was this item previously studied?",CONTROL,Recog,1::2,9914,YES,22.222222222222,-1,-1,0,0,,0.46
63cfeeba5c3e8b7f34c76817,karsy090f7,"Mediated Recog Prolific",1,131,2023-05-08T20:38:40+00:00,6.9267339706421,7,versionD_stim.csv,ReadVersion_Recog.csv,"Read Recog",Read4,,CHARM,RECOG,Control,95,72,Likert,User,1,"Was this item previously studied?",CONTROL,Recog,1::2,6466,NO,0,-1,-1,0,0,,0.455
63cfeeba5c3e8b7f34c76817,karsy090f7,"Mediated Recog Prolific",1,132,2023-05-08T20:38:43+00:00,2.8523879051208,7,versionD_stim.csv,ReadVersion_Recog.csv,"Read Recog",Read4,,WOLF,RECOG,Presented,138,139,Likert,User,1,"Was this item previously studied?",PRESENTED,Recog,1::2,2398,YES,0,-1,-1,0,0,,1
63cfeeba5c3e8b7f34c76817,karsy090f7,"Mediated Recog Prolific",1,133,2023-05-08T20:38:48+00:00,5.5544641017914,7,versionD_stim.csv,ReadVersion_Recog.csv,"Read Recog",Read4,,BELT,RECOG,Control,101,112,Likert,User,1,"Was this item previously studied?",PRESENTED,Recog,1::2,5095,NO,0,-1,-1,0,0,,0.462
63cfeeba5c3e8b7f34c76817,karsy090f7,"Mediated Recog Prolific",1,134,2023-05-08T20:38:51+00:00,2.3431959152222,7,versionD_stim.csv,ReadVersion_Recog.csv,"Read Recog",Read4,,ELECTION,RECOG,Control,94,129,Likert,User,1,"Was this item previously studied?",PRESENTED,Recog,1::2,1888,NO,20,-1,-1,0,0,,1
63cfeeba5c3e8b7f34c76817,karsy090f7,"Mediated Recog Prolific",1,135,2023-05-08T20:38:57+00:00,6.3685119152069,7,versionD_stim.csv,ReadVersion_Recog.csv,"Read Recog",Read4,,FINGER,RECOG,Control,72,81,Likert,User,1,"Was this item previously studied?",CONTROL,Recog,1::2,5909,NO,25,-1,-1,0,0,,0.6
63cfeeba5c3e8b7f34c76817,karsy090f7,"Mediated Recog Prolific",1,136,2023-05-08T20:39:00+00:00,3.3464961051941,7,versionD_stim.csv,ReadVersion_Recog.csv,"Read Recog",Read4,,HORN,RECOG,Presented,143,127,Likert,User,1,"Was this item previously studied?",PRESENTED,Recog,1::2,2890,YES,0,-1,-1,0,0,,1
63cfeeba5c3e8b7f34c76817,karsy090f7,"Mediated Recog Prolific",1,137,2023-05-08T20:39:02+00:00,1.9425790309906,7,versionD_stim.csv,ReadVersion_Recog.csv,"Read Recog",Read4,,BOX,RECOG,Control,62,71,Likert,User,1,"Was this item previously studied?",CONTROL,Recog,1::2,1488,NO,40,-1,-1,0,0,,1
63cfeeba5c3e8b7f34c76817,karsy090f7,"Mediated Recog Prolific",1,138,2023-05-08T20:39:04+00:00,1.7232668399811,7,versionD_stim.csv,ReadVersion_Recog.csv,"Read Recog",Read4,,MAROON,RECOG,Control,91,122,Likert,User,1,"Was this item previously studied?",PRESENTED,Recog,1::2,1269,NO,25,-1,-1,0,0,,1
63cfeeba5c3e8b7f34c76817,karsy090f7,"Mediated Recog Prolific",1,139,2023-05-08T20:39:06+00:00,2.1281540393829,7,versionD_stim.csv,ReadVersion_Recog.csv,"Read Recog",Read4,,MORNING,RECOG,Control,103,101,Likert,User,1,"Was this item previously studied?",CONTROL,Recog,1::2,1676,NO,22.222222222222,-1,-1,0,0,,1
63cfeeba5c3e8b7f34c76817,karsy090f7,"Mediated Recog Prolific",1,140,2023-05-08T20:39:09+00:00,2.4113640785217,7,versionD_stim.csv,ReadVersion_Recog.csv,"Read Recog",Read4,,DONKEY,RECOG,Control,79,84,Likert,User,1,"Was this item previously studied?",CONTROL,Recog,1::2,1955,NO,25,-1,-1,0,0,,1
63cfeeba5c3e8b7f34c76817,karsy090f7,"Mediated Recog Prolific",1,141,2023-05-08T20:39:15+00:00,6.5519330501556,7,versionD_stim.csv,ReadVersion_Recog.csv,"Read Recog",Read4,,SLEEP,RECOG,Control,84,68,Likert,User,1,"Was this item previously studied?",CONTROL,Recog,1::2,6086,NO,0,-1,-1,0,0,,0.516
63cfeeba5c3e8b7f34c76817,karsy090f7,"Mediated Recog Prolific",1,142,2023-05-08T20:39:18+00:00,2.680624961853,7,versionD_stim.csv,ReadVersion_Recog.csv,"Read Recog",Read4,,SNOW,RECOG,Presented,106,76,Likert,User,1,"Was this item previously studied?",CONTROL,Recog,1::2,2242,YES,28.571428571429,-1,-1,0,0,,0.5
63cfeeba5c3e8b7f34c76817,karsy090f7,"Mediated Recog Prolific",1,143,2023-05-08T20:39:20+00:00,2.1795880794525,7,versionD_stim.csv,ReadVersion_Recog.csv,"Read Recog",Read4,,PHONE,RECOG,Control,97,86,Likert,User,1,"Was this item previously studied?",CONTROL,Recog,1::2,1747,NO,28.571428571429,-1,-1,0,0,,1
63cfeeba5c3e8b7f34c76817,karsy090f7,"Mediated Recog Prolific",1,144,2023-05-08T20:39:25+00:00,5.1170139312744,7,versionD_stim.csv,ReadVersion_Recog.csv,"Read Recog",Read4,,CARD,RECOG,Control,88,106,Likert,User,1,"Was this item previously studied?",PRESENTED,Recog,1::2,4687,NO,0,-1,-1,0,0,,0.542
63cfeeba5c3e8b7f34c76817,karsy090f7,"Mediated Recog Prolific",1,145,2023-05-08T20:39:28+00:00,3.0837118625641,7,versionD_stim.csv,ReadVersion_Recog.csv,"Read Recog",Read4,,ROD,RECOG,Control,100,114,Likert,User,1,"Was this item previously studied?",PRESENTED,Recog,1::2,2644,NO,40,-1,-1,0,0,,1
63cfeeba5c3e8b7f34c76817,karsy090f7,"Mediated Recog Prolific",1,146,2023-05-08T20:39:31+00:00,2.6119101047516,7,versionD_stim.csv,ReadVersion_Recog.csv,"Read Recog",Read4,,TICK,RECOG,Control,102,75,Likert,User,1,"Was this item previously studied?",CONTROL,Recog,1::2,2182,NO,0,-1,-1,0,0,,1
63cfeeba5c3e8b7f34c76817,karsy090f7,"Mediated Recog Prolific",1,147,2023-05-08T20:39:36+00:00,5.3502819538116,7,versionD_stim.csv,ReadVersion_Recog.csv,"Read Recog",Read4,,PAPER,RECOG,Presented,127,64,Likert,User,1,"Was this item previously studied?",CONTROL,Recog,1::2,4815,YES,25,-1,-1,0,0,,0.6
63cfeeba5c3e8b7f34c76817,karsy090f7,"Mediated Recog Prolific",1,148,2023-05-08T20:39:38+00:00,1.9588670730591,7,versionD_stim.csv,ReadVersion_Recog.csv,"Read Recog",Read4,,SYRUP,RECOG,Control,66,132,Likert,User,1,"Was this item previously studied?",PRESENTED,Recog,1::2,1502,NO,0,-1,-1,0,0,,1
63cfeeba5c3e8b7f34c76817,karsy090f7,"Mediated Recog Prolific",1,149,2023-05-08T20:39:40+00:00,1.9556748867035,7,versionD_stim.csv,ReadVersion_Recog.csv,"Read Recog",Read4,,KNOB,RECOG,Presented,119,82,Likert,User,1,"Was this item previously studied?",CONTROL,Recog,1::2,1504,YES,0,-1,-1,0,0,,1
63cfeeba5c3e8b7f34c76817,karsy090f7,"Mediated Recog Prolific",1,150,2023-05-08T20:39:42+00:00,1.6632640361786,7,versionD_stim.csv,ReadVersion_Recog.csv,"Read Recog",Read4,,FIGHT,RECOG,Presented,131,60,Likert,User,1,"Was this item previously studied?",CONTROL,Recog,1::2,1208,NO,0,-1,-1,0,0,,1
63cfeeba5c3e8b7f34c76817,karsy090f7,"Mediated Recog Prolific",1,151,2023-05-08T20:39:43+00:00,1.5157570838928,7,versionD_stim.csv,ReadVersion_Recog.csv,"Read Recog",Read4,,,,,,0,Instruct,User,-,"You have completed this section. Please press Enter.",,Instruct7,,1065,,,-1,-1,,,,1
63cfeeba5c3e8b7f34c76817,karsy090f7,"Mediated Recog Prolific",1,152,2023-05-08T20:39:46+00:00,3.0437610149384,7,versionD_stim.csv,ReadVersion_Recog.csv,"Read Recog",Read4,,,,,,0,Instruct,User,-,"The following screen will ask you a few questions abour your experience today. You must complete these questions to receive credit.",,Instruct8,,2588,,,-1,-1,,,,1
