Username,ID,ExperimentName,Session,Trial,Date,TimeDif,"Condition Number","Stimuli File","Order File","Condition Description","Condition Notes",Stimuli*Cue,Stimuli*Answer,Stimuli*Shuffle,"Stimuli*Stimuli Notes",Stimuli*Value,Procedure*Item,"Procedure*Trial Type","Procedure*Max Time","Procedure*Min Time",Procedure*Text,"Procedure*Procedure Notes",Procedure*Shuffle,Procedure*,Response*RT,Response*Response,Response*Accuracy,Response*RTfirst,Response*RTlast,Response*strictAcc,Response*lenientAcc,Response*focus,Response*Focus
5e8a5b46ec9b336fda76f6f1,oe7e3ak2zs,"Mediated Recog Prolific",1,1,2023-05-08T22:12:06+00:00,7.526269197464,7,versionD_stim.csv,ReadVersion_Recog.csv,"Read Recog",Read4,,,,,,0,Instruct,-,5,"In this section, you will be presented with a series of word pairs. Please study each word pair! Your memory will be tested!",Initial_Instruct,Instruct1,,6918,,,-1,-1,,,,0.543
5e8a5b46ec9b336fda76f6f1,oe7e3ak2zs,"Mediated Recog Prolific",1,2,2023-05-08T22:12:08+00:00,2.2159609794617,7,versionD_stim.csv,ReadVersion_Recog.csv,"Read Recog",Read4,,,,,,0,Instruct,User,-,"You will now begin. Press Enter when you are ready to begin.",,Instruct16,,1758,,,-1,-1,,,,0
5e8a5b46ec9b336fda76f6f1,oe7e3ak2zs,"Mediated Recog Prolific",1,3,2023-05-08T22:12:12+00:00,3.9599559307098,7,versionD_stim.csv,ReadVersion_Recog.csv,"Read Recog",Read4,DAYS,WEAKS,BUFFER3,Buffer,1,4,Study,User,-,,Study/JOL,BUFFER,,3516,,,-1,-1,,,,0
5e8a5b46ec9b336fda76f6f1,oe7e3ak2zs,"Mediated Recog Prolific",1,4,2023-05-08T22:12:16+00:00,3.6821229457855,7,versionD_stim.csv,ReadVersion_Recog.csv,"Read Recog",Read4,MONTH,YEAR,BUFFER3,Buffer,2,3,Study,User,-,,Study/JOL,BUFFER,,3242,,,-1,-1,,,,0.118
5e8a5b46ec9b336fda76f6f1,oe7e3ak2zs,"Mediated Recog Prolific",1,5,2023-05-08T22:12:19+00:00,3.1288149356842,7,versionD_stim.csv,ReadVersion_Recog.csv,"Read Recog",Read4,TOOL,SHED,BUFFER3,Buffer,3,2,Study,User,-,,Study/JOL,BUFFER,,2686,,,-1,-1,,,,0
5e8a5b46ec9b336fda76f6f1,oe7e3ak2zs,"Mediated Recog Prolific",1,6,2023-05-08T22:12:25+00:00,5.7185351848602,7,versionD_stim.csv,ReadVersion_Recog.csv,"Read Recog",Read4,OCTOBER,SPOOKY,BUFFER3,Buffer,5,6,Study,User,-,,Study/JOL,BUFFER,,4933,,,-1,-1,,,,0.16
5e8a5b46ec9b336fda76f6f1,oe7e3ak2zs,"Mediated Recog Prolific",1,7,2023-05-08T22:12:33+00:00,8.0910878181458,7,versionD_stim.csv,ReadVersion_Recog.csv,"Read Recog",Read4,SPRING,MARCH,BUFFER3,Buffer,4,5,Study,User,-,,Study/JOL,BUFFER,,7248,,,-1,-1,,,,0.243
5e8a5b46ec9b336fda76f6f1,oe7e3ak2zs,"Mediated Recog Prolific",1,8,2023-05-08T22:12:39+00:00,5.941260099411,7,versionD_stim.csv,ReadVersion_Recog.csv,"Read Recog",Read4,CACTUS,PLANT,Study2,F,21,24,Study,User,-,,Study/JOL,"Study Phase",,5122,,,619,824,,,,0.346
5e8a5b46ec9b336fda76f6f1,oe7e3ak2zs,"Mediated Recog Prolific",1,9,2023-05-08T22:12:42+00:00,3.8770909309387,7,versionD_stim.csv,ReadVersion_Recog.csv,"Read Recog",Read4,ATTIRE,CLOTHES,Study2,F,24,23,Study,User,-,,Study/JOL,"Study Phase",,3394,,,-1,-1,,,,0
5e8a5b46ec9b336fda76f6f1,oe7e3ak2zs,"Mediated Recog Prolific",1,10,2023-05-08T22:12:46+00:00,3.553004026413,7,versionD_stim.csv,ReadVersion_Recog.csv,"Read Recog",Read4,FEUD,FIGHT,Study2,F,31,13,Study,User,-,,Study/JOL,"Study Phase",,2778,,,-1,-1,,,,0.071
5e8a5b46ec9b336fda76f6f1,oe7e3ak2zs,"Mediated Recog Prolific",1,11,2023-05-08T22:12:50+00:00,4.3551309108734,7,versionD_stim.csv,ReadVersion_Recog.csv,"Read Recog",Read4,LEAGUE,BASEBALL,Study2,F,29,7,Study,User,-,,Study/JOL,"Study Phase",,3878,,,-1,-1,,,,0
5e8a5b46ec9b336fda76f6f1,oe7e3ak2zs,"Mediated Recog Prolific",1,12,2023-05-08T22:12:56+00:00,5.7297611236572,7,versionD_stim.csv,ReadVersion_Recog.csv,"Read Recog",Read4,DEATH,BUSINESS,Study2,U,44,20,Study,User,-,,Study/JOL,"Study Phase",,4924,,,-1,-1,,,,0.04
5e8a5b46ec9b336fda76f6f1,oe7e3ak2zs,"Mediated Recog Prolific",1,13,2023-05-08T22:12:58+00:00,1.5183761119843,7,versionD_stim.csv,ReadVersion_Recog.csv,"Read Recog",Read4,PUSH,CLUTTER,Study2,U,41,34,Study,User,-,,Study/JOL,"Study Phase",,1047,,,-1,-1,,,,1
5e8a5b46ec9b336fda76f6f1,oe7e3ak2zs,"Mediated Recog Prolific",1,14,2023-05-08T22:12:59+00:00,1.1307528018951,7,versionD_stim.csv,ReadVersion_Recog.csv,"Read Recog",Read4,DIETARY,SACK,Study2,U,42,48,Study,User,-,,Study/JOL,"Study Phase",,660,,,-1,-1,,,,1
5e8a5b46ec9b336fda76f6f1,oe7e3ak2zs,"Mediated Recog Prolific",1,15,2023-05-08T22:13:01+00:00,2.0150811672211,7,versionD_stim.csv,ReadVersion_Recog.csv,"Read Recog",Read4,MIRROR,CHILDREN,Study2,U,49,27,Study,User,-,,Study/JOL,"Study Phase",,1556,,,-1,-1,,,,1
5e8a5b46ec9b336fda76f6f1,oe7e3ak2zs,"Mediated Recog Prolific",1,16,2023-05-08T22:13:02+00:00,1.6277458667755,7,versionD_stim.csv,ReadVersion_Recog.csv,"Read Recog",Read4,TRAP,CAVE,Study2,M,15,45,Study,User,-,,Study/JOL,"Study Phase",,1165,,,-1,-1,,,,1
5e8a5b46ec9b336fda76f6f1,oe7e3ak2zs,"Mediated Recog Prolific",1,17,2023-05-08T22:13:04+00:00,1.5350179672241,7,versionD_stim.csv,ReadVersion_Recog.csv,"Read Recog",Read4,CASH,LEG,Study2,U,50,40,Study,User,-,,Study/JOL,"Study Phase",,1065,,,-1,-1,,,,1
5e8a5b46ec9b336fda76f6f1,oe7e3ak2zs,"Mediated Recog Prolific",1,18,2023-05-08T22:13:09+00:00,4.5632481575012,7,versionD_stim.csv,ReadVersion_Recog.csv,"Read Recog",Read4,REALITY,ISLAND,Study2,M,9,11,Study,User,-,,Study/JOL,"Study Phase",,4112,,,-1,-1,,,,0.143
5e8a5b46ec9b336fda76f6f1,oe7e3ak2zs,"Mediated Recog Prolific",1,19,2023-05-08T22:13:10+00:00,1.5839049816132,7,versionD_stim.csv,ReadVersion_Recog.csv,"Read Recog",Read4,WINDOW,KNOB,Study2,M,19,15,Study,User,-,,Study/JOL,"Study Phase",,1139,,,-1,-1,,,,1
5e8a5b46ec9b336fda76f6f1,oe7e3ak2zs,"Mediated Recog Prolific",1,20,2023-05-08T22:13:11+00:00,1.3540048599243,7,versionD_stim.csv,ReadVersion_Recog.csv,"Read Recog",Read4,SUGAR,RIDDLE,Study2,U,40,33,Study,User,-,,Study/JOL,"Study Phase",,912,,,-1,-1,,,,1
5e8a5b46ec9b336fda76f6f1,oe7e3ak2zs,"Mediated Recog Prolific",1,21,2023-05-08T22:13:13+00:00,1.5610630512238,7,versionD_stim.csv,ReadVersion_Recog.csv,"Read Recog",Read4,NURSE,LAWYER,Study2,M,11,31,Study,User,-,,Study/JOL,"Study Phase",,1094,,,-1,-1,,,,1
5e8a5b46ec9b336fda76f6f1,oe7e3ak2zs,"Mediated Recog Prolific",1,22,2023-05-08T22:13:14+00:00,1.1242411136627,7,versionD_stim.csv,ReadVersion_Recog.csv,"Read Recog",Read4,SOAP,DRINK,Study2,M,12,19,Study,User,-,,Study/JOL,"Study Phase",,672,,,-1,-1,,,,1
5e8a5b46ec9b336fda76f6f1,oe7e3ak2zs,"Mediated Recog Prolific",1,23,2023-05-08T22:13:18+00:00,3.8438539505005,7,versionD_stim.csv,ReadVersion_Recog.csv,"Read Recog",Read4,GRILL,THIGH,Study2,M,17,46,Study,User,-,,Study/JOL,"Study Phase",,3404,,,-1,-1,,,,0.111
5e8a5b46ec9b336fda76f6f1,oe7e3ak2zs,"Mediated Recog Prolific",1,24,2023-05-08T22:13:19+00:00,1.2335350513458,7,versionD_stim.csv,ReadVersion_Recog.csv,"Read Recog",Read4,VALLEY,PEAK,Study2,M,18,51,Study,User,-,,Study/JOL,"Study Phase",,783,,,-1,-1,,,,1
5e8a5b46ec9b336fda76f6f1,oe7e3ak2zs,"Mediated Recog Prolific",1,25,2023-05-08T22:13:22+00:00,2.937246799469,7,versionD_stim.csv,ReadVersion_Recog.csv,"Read Recog",Read4,EYES,SMELL,Study2,M,10,17,Study,User,-,,Study/JOL,"Study Phase",,2477,,,-1,-1,,,,1
5e8a5b46ec9b336fda76f6f1,oe7e3ak2zs,"Mediated Recog Prolific",1,26,2023-05-08T22:13:28+00:00,6.1213672161102,7,versionD_stim.csv,ReadVersion_Recog.csv,"Read Recog",Read4,INCENSE,SMELL,Study2,F,28,30,Study,User,-,,Study/JOL,"Study Phase",,5344,,,-1,-1,,,,0.407
5e8a5b46ec9b336fda76f6f1,oe7e3ak2zs,"Mediated Recog Prolific",1,27,2023-05-08T22:13:33+00:00,4.2540597915649,7,versionD_stim.csv,ReadVersion_Recog.csv,"Read Recog",Read4,BRIDGE,WATER,Study2,F,35,28,Study,User,-,,Study/JOL,"Study Phase",,3797,,,-1,-1,,,,1
5e8a5b46ec9b336fda76f6f1,oe7e3ak2zs,"Mediated Recog Prolific",1,28,2023-05-08T22:13:34+00:00,1.9471859931946,7,versionD_stim.csv,ReadVersion_Recog.csv,"Read Recog",Read4,PANTS,COLLAR,Study2,M,8,44,Study,User,-,,Study/JOL,"Study Phase",,1505,,,-1,-1,,,,1
5e8a5b46ec9b336fda76f6f1,oe7e3ak2zs,"Mediated Recog Prolific",1,29,2023-05-08T22:13:39+00:00,4.6368870735168,7,versionD_stim.csv,ReadVersion_Recog.csv,"Read Recog",Read4,ARTERY,BRONZE,Study2,U,48,22,Study,User,-,,Study/JOL,"Study Phase",,4168,,,-1,-1,,,,0.143
5e8a5b46ec9b336fda76f6f1,oe7e3ak2zs,"Mediated Recog Prolific",1,30,2023-05-08T22:13:41+00:00,2.0142240524292,7,versionD_stim.csv,ReadVersion_Recog.csv,"Read Recog",Read4,CHISEL,HAMMER,Study2,F,23,41,Study,User,-,,Study/JOL,"Study Phase",,1571,,,-1,-1,,,,1
5e8a5b46ec9b336fda76f6f1,oe7e3ak2zs,"Mediated Recog Prolific",1,31,2023-05-08T22:13:43+00:00,1.8710269927979,7,versionD_stim.csv,ReadVersion_Recog.csv,"Read Recog",Read4,STRONG,ACCIDENT,Study2,U,39,35,Study,User,-,,Study/JOL,"Study Phase",,1415,,,-1,-1,,,,1
5e8a5b46ec9b336fda76f6f1,oe7e3ak2zs,"Mediated Recog Prolific",1,32,2023-05-08T22:13:45+00:00,1.9859850406647,7,versionD_stim.csv,ReadVersion_Recog.csv,"Read Recog",Read4,KING,VASE,Study2,U,36,26,Study,User,-,,Study/JOL,"Study Phase",,1530,,,-1,-1,,,,1
5e8a5b46ec9b336fda76f6f1,oe7e3ak2zs,"Mediated Recog Prolific",1,33,2023-05-08T22:13:49+00:00,3.7898459434509,7,versionD_stim.csv,ReadVersion_Recog.csv,"Read Recog",Read4,SICK,HIDE,Study2,U,45,36,Study,User,-,,Study/JOL,"Study Phase",,3337,,,-1,-1,,,,0.118
5e8a5b46ec9b336fda76f6f1,oe7e3ak2zs,"Mediated Recog Prolific",1,34,2023-05-08T22:13:51+00:00,1.7824099063873,7,versionD_stim.csv,ReadVersion_Recog.csv,"Read Recog",Read4,CHERRY,RED,Study2,F,25,39,Study,User,-,,Study/JOL,"Study Phase",,1328,,,-1,-1,,,,1
5e8a5b46ec9b336fda76f6f1,oe7e3ak2zs,"Mediated Recog Prolific",1,35,2023-05-08T22:13:55+00:00,4.5582489967346,7,versionD_stim.csv,ReadVersion_Recog.csv,"Read Recog",Read4,BOTH,OUNCE,Study2,U,47,25,Study,User,-,,Study/JOL,"Study Phase",,4109,,,-1,-1,,,,0.19
5e8a5b46ec9b336fda76f6f1,oe7e3ak2zs,"Mediated Recog Prolific",1,36,2023-05-08T22:13:58+00:00,2.4960720539093,7,versionD_stim.csv,ReadVersion_Recog.csv,"Read Recog",Read4,HORNET,STING,Study2,F,30,14,Study,User,-,,Study/JOL,"Study Phase",,2046,,,-1,-1,,,,1
5e8a5b46ec9b336fda76f6f1,oe7e3ak2zs,"Mediated Recog Prolific",1,37,2023-05-08T22:14:00+00:00,2.4191660881042,7,versionD_stim.csv,ReadVersion_Recog.csv,"Read Recog",Read4,LEASE,TOIL,Study2,U,46,50,Study,User,-,,Study/JOL,"Study Phase",,1964,,,-1,-1,,,,1
5e8a5b46ec9b336fda76f6f1,oe7e3ak2zs,"Mediated Recog Prolific",1,38,2023-05-08T22:14:02+00:00,1.6958069801331,7,versionD_stim.csv,ReadVersion_Recog.csv,"Read Recog",Read4,CHOP,CUT,Study2,F,22,47,Study,User,-,,Study/JOL,"Study Phase",,1248,,,-1,-1,,,,1
5e8a5b46ec9b336fda76f6f1,oe7e3ak2zs,"Mediated Recog Prolific",1,39,2023-05-08T22:14:03+00:00,1.5141398906708,7,versionD_stim.csv,ReadVersion_Recog.csv,"Read Recog",Read4,OVEN,BASKET,Study2,M,16,49,Study,User,-,,Study/JOL,"Study Phase",,1070,,,-1,-1,,,,1
5e8a5b46ec9b336fda76f6f1,oe7e3ak2zs,"Mediated Recog Prolific",1,40,2023-05-08T22:14:05+00:00,1.7878081798553,7,versionD_stim.csv,ReadVersion_Recog.csv,"Read Recog",Read4,ART,WOLF,Study2,U,38,38,Study,User,-,,Study/JOL,"Study Phase",,1341,,,-1,-1,,,,1
5e8a5b46ec9b336fda76f6f1,oe7e3ak2zs,"Mediated Recog Prolific",1,41,2023-05-08T22:14:07+00:00,1.7890219688416,7,versionD_stim.csv,ReadVersion_Recog.csv,"Read Recog",Read4,RAKE,SEED,Study2,M,14,43,Study,User,-,,Study/JOL,"Study Phase",,1323,,,-1,-1,,,,1
5e8a5b46ec9b336fda76f6f1,oe7e3ak2zs,"Mediated Recog Prolific",1,42,2023-05-08T22:14:10+00:00,3.3410739898682,7,versionD_stim.csv,ReadVersion_Recog.csv,"Read Recog",Read4,HAPPY,CAR,Study2,U,37,18,Study,User,-,,Study/JOL,"Study Phase",,2898,,,-1,-1,,,,0.067
5e8a5b46ec9b336fda76f6f1,oe7e3ak2zs,"Mediated Recog Prolific",1,43,2023-05-08T22:14:12+00:00,2.1835758686066,7,versionD_stim.csv,ReadVersion_Recog.csv,"Read Recog",Read4,HEAVY,FEATHER,Study2,M,13,8,Study,User,-,,Study/JOL,"Study Phase",,1710,,,-1,-1,,,,1
5e8a5b46ec9b336fda76f6f1,oe7e3ak2zs,"Mediated Recog Prolific",1,44,2023-05-08T22:14:14+00:00,1.8420100212097,7,versionD_stim.csv,ReadVersion_Recog.csv,"Read Recog",Read4,BENCH,HORN,Study2,U,43,32,Study,User,-,,Study/JOL,"Study Phase",,1394,,,-1,-1,,,,1
5e8a5b46ec9b336fda76f6f1,oe7e3ak2zs,"Mediated Recog Prolific",1,45,2023-05-08T22:14:16+00:00,1.4163780212402,7,versionD_stim.csv,ReadVersion_Recog.csv,"Read Recog",Read4,CHILL,COLD,Study2,F,32,10,Study,User,-,,Study/JOL,"Study Phase",,954,,,-1,-1,,,,1
5e8a5b46ec9b336fda76f6f1,oe7e3ak2zs,"Mediated Recog Prolific",1,46,2023-05-08T22:14:20+00:00,4.220899105072,7,versionD_stim.csv,ReadVersion_Recog.csv,"Read Recog",Read4,DOCUMENT,PAPER,Study2,F,27,16,Study,User,-,,Study/JOL,"Study Phase",,3770,,,-1,-1,,,,0.158
5e8a5b46ec9b336fda76f6f1,oe7e3ak2zs,"Mediated Recog Prolific",1,47,2023-05-08T22:14:21+00:00,1.4307868480682,7,versionD_stim.csv,ReadVersion_Recog.csv,"Read Recog",Read4,BLAZE,FIRE,Study2,F,26,37,Study,User,-,,Study/JOL,"Study Phase",,978,,,-1,-1,,,,1
5e8a5b46ec9b336fda76f6f1,oe7e3ak2zs,"Mediated Recog Prolific",1,48,2023-05-08T22:14:23+00:00,2.1079390048981,7,versionD_stim.csv,ReadVersion_Recog.csv,"Read Recog",Read4,RAZOR,MUSCLE,Study2,M,20,42,Study,User,-,,Study/JOL,"Study Phase",,1636,,,-1,-1,,,,1
5e8a5b46ec9b336fda76f6f1,oe7e3ak2zs,"Mediated Recog Prolific",1,49,2023-05-08T22:14:26+00:00,2.2257430553436,7,versionD_stim.csv,ReadVersion_Recog.csv,"Read Recog",Read4,SUMMER,SNOW,Study2,M,6,12,Study,User,-,,Study/JOL,"Study Phase",,1770,,,-1,-1,,,,1
5e8a5b46ec9b336fda76f6f1,oe7e3ak2zs,"Mediated Recog Prolific",1,50,2023-05-08T22:14:28+00:00,2.2195250988007,7,versionD_stim.csv,ReadVersion_Recog.csv,"Read Recog",Read4,HERD,COW,Study2,F,33,29,Study,User,-,,Study/JOL,"Study Phase",,1774,,,-1,-1,,,,1
5e8a5b46ec9b336fda76f6f1,oe7e3ak2zs,"Mediated Recog Prolific",1,51,2023-05-08T22:14:30+00:00,2.6743819713593,7,versionD_stim.csv,ReadVersion_Recog.csv,"Read Recog",Read4,WASP,BUG,Study2,F,34,21,Study,User,-,,Study/JOL,"Study Phase",,2214,,,-1,-1,,,,1
5e8a5b46ec9b336fda76f6f1,oe7e3ak2zs,"Mediated Recog Prolific",1,52,2023-05-08T22:14:33+00:00,3.0030238628387,7,versionD_stim.csv,ReadVersion_Recog.csv,"Read Recog",Read4,SCHOOL,STOP,Study2,M,7,9,Study,User,-,,Study/JOL,"Study Phase",,2535,,,-1,-1,,,,1
5e8a5b46ec9b336fda76f6f1,oe7e3ak2zs,"Mediated Recog Prolific",1,53,2023-05-08T22:14:36+00:00,2.8782241344452,7,versionD_stim.csv,ReadVersion_Recog.csv,"Read Recog",Read4,CARROT,POTATO,BUFFER4,Buffer,51,56,Study,User,-,,Study/JOL,BUFFER2,,2425,,,-1,-1,,,,1
5e8a5b46ec9b336fda76f6f1,oe7e3ak2zs,"Mediated Recog Prolific",1,54,2023-05-08T22:14:41+00:00,4.4089879989624,7,versionD_stim.csv,ReadVersion_Recog.csv,"Read Recog",Read4,SHRIMP,FISH,BUFFER4,Buffer,53,53,Study,User,-,,Study/JOL,BUFFER2,,3957,,,-1,-1,,,,0.2
5e8a5b46ec9b336fda76f6f1,oe7e3ak2zs,"Mediated Recog Prolific",1,55,2023-05-08T22:14:43+00:00,2.7099850177765,7,versionD_stim.csv,ReadVersion_Recog.csv,"Read Recog",Read4,ICE,FROZEN,BUFFER4,Buffer,54,52,Study,User,-,,Study/JOL,BUFFER2,,2263,,,-1,-1,,,,1
5e8a5b46ec9b336fda76f6f1,oe7e3ak2zs,"Mediated Recog Prolific",1,56,2023-05-08T22:14:47+00:00,3.0608780384064,7,versionD_stim.csv,ReadVersion_Recog.csv,"Read Recog",Read4,NOODLE,STRING,BUFFER4,Buffer,52,55,Study,User,-,,Study/JOL,BUFFER2,,2601,,,-1,-1,,,,1
5e8a5b46ec9b336fda76f6f1,oe7e3ak2zs,"Mediated Recog Prolific",1,57,2023-05-08T22:14:48+00:00,1.852157831192,7,versionD_stim.csv,ReadVersion_Recog.csv,"Read Recog",Read4,CAMP,ADVENTURE,BUFFER4,Buffer,55,54,Study,User,-,,Study/JOL,BUFFER2,,1403,,,-1,-1,,,,1
5e8a5b46ec9b336fda76f6f1,oe7e3ak2zs,"Mediated Recog Prolific",1,58,2023-05-08T22:14:51+00:00,2.2996571063995,7,versionD_stim.csv,ReadVersion_Recog.csv,"Read Recog",Read4,,,,,,0,Instruct,User,-,"You have completed this section. Please press Enter.",Filler_Instruction,Instruct2,,1826,,,-1,-1,,,,1
5e8a5b46ec9b336fda76f6f1,oe7e3ak2zs,"Mediated Recog Prolific",1,59,2023-05-08T22:16:52+00:00,121.01426386833,7,versionD_stim.csv,ReadVersion_Recog.csv,"Read Recog",Read4,,,,,,0,FreeRecall,120,120,"Please list the 50 US states in alphabetical order. The task will automatically advance to the next screen after two minutes.",,Filler1,,120001,"Alaska, Arizona, Alabama, Arkansas, California, Colarado, Connenticut, Delaware, Denver, Florida, Georgia, Hawaii, Idaho, Illinois, Iowa, Indiana, Kentucky, ",0,7201,111584,0,0,,0.867
5e8a5b46ec9b336fda76f6f1,oe7e3ak2zs,"Mediated Recog Prolific",1,60,2023-05-08T22:21:05+00:00,253.05436611176,7,versionD_stim.csv,ReadVersion_Recog.csv,"Read Recog",Read4,,,,,,0,Instruct,User,10,"Your memory will now be tested. You will be presented with a series of words that may or may not have been previously presented alongside another word. If the word on the screen was previously studied, please select YES. If the word was not studied, select NO. PLEASE DO NOT SKIP ITEMS! Click next when you are ready to begin.",,Instruc7982154d,,251677,,,-1,-1,,,,0.133
5e8a5b46ec9b336fda76f6f1,oe7e3ak2zs,"Mediated Recog Prolific",1,61,2023-05-08T22:21:09+00:00,3.9376080036163,7,versionD_stim.csv,ReadVersion_Recog.csv,"Read Recog",Read4,,FEATHER,RECOG,Presented,113,102,Likert,User,1,"Was this item previously studied?",PRESENTED,Recog,1::2,2439,YES,20,-1,-1,0,0,,1
5e8a5b46ec9b336fda76f6f1,oe7e3ak2zs,"Mediated Recog Prolific",1,62,2023-05-08T22:21:12+00:00,3.3658039569855,7,versionD_stim.csv,ReadVersion_Recog.csv,"Read Recog",Read4,,SLEEP,RECOG,Control,84,92,Likert,User,1,"Was this item previously studied?",CONTROL,Recog,1::2,2827,NO,0,-1,-1,0,0,,1
5e8a5b46ec9b336fda76f6f1,oe7e3ak2zs,"Mediated Recog Prolific",1,63,2023-05-08T22:21:15+00:00,2.7207040786743,7,versionD_stim.csv,ReadVersion_Recog.csv,"Read Recog",Read4,,BASKET,RECOG,Presented,116,78,Likert,User,1,"Was this item previously studied?",CONTROL,Recog,1::2,2218,NO,0,-1,-1,0,0,,1
5e8a5b46ec9b336fda76f6f1,oe7e3ak2zs,"Mediated Recog Prolific",1,64,2023-05-08T22:21:17+00:00,1.9140129089355,7,versionD_stim.csv,ReadVersion_Recog.csv,"Read Recog",Read4,,WATER,RECOG,Presented,135,101,Likert,User,1,"Was this item previously studied?",CONTROL,Recog,1::2,1414,NO,0,-1,-1,0,0,,1
5e8a5b46ec9b336fda76f6f1,oe7e3ak2zs,"Mediated Recog Prolific",1,65,2023-05-08T22:21:18+00:00,1.5963990688324,7,versionD_stim.csv,ReadVersion_Recog.csv,"Read Recog",Read4,,BOTTLE,RECOG,Control,71,107,Likert,User,1,"Was this item previously studied?",PRESENTED,Recog,1::2,1111,NO,25,-1,-1,0,0,,1
5e8a5b46ec9b336fda76f6f1,oe7e3ak2zs,"Mediated Recog Prolific",1,66,2023-05-08T22:21:20+00:00,1.7779560089111,7,versionD_stim.csv,ReadVersion_Recog.csv,"Read Recog",Read4,,CHILDREN,RECOG,Presented,149,94,Likert,User,1,"Was this item previously studied?",CONTROL,Recog,1::2,1277,NO,20,-1,-1,0,0,,1
5e8a5b46ec9b336fda76f6f1,oe7e3ak2zs,"Mediated Recog Prolific",1,67,2023-05-08T22:21:22+00:00,2.3380460739136,7,versionD_stim.csv,ReadVersion_Recog.csv,"Read Recog",Read4,,PIE,RECOG,Control,64,58,Likert,User,1,"Was this item previously studied?",CONTROL,Recog,1::2,1840,YES,33.333333333333,-1,-1,0,0,,1
5e8a5b46ec9b336fda76f6f1,oe7e3ak2zs,"Mediated Recog Prolific",1,68,2023-05-08T22:21:25+00:00,2.6332998275757,7,versionD_stim.csv,ReadVersion_Recog.csv,"Read Recog",Read4,,HIDE,RECOG,Presented,145,144,Likert,User,1,"Was this item previously studied?",PRESENTED,Recog,1::2,2147,YES,28.571428571429,-1,-1,0,0,,1
5e8a5b46ec9b336fda76f6f1,oe7e3ak2zs,"Mediated Recog Prolific",1,69,2023-05-08T22:21:28+00:00,2.5060031414032,7,versionD_stim.csv,ReadVersion_Recog.csv,"Read Recog",Read4,,MORNING,RECOG,Control,103,128,Likert,User,1,"Was this item previously studied?",PRESENTED,Recog,1::2,2026,NO,22.222222222222,-1,-1,0,0,,1
5e8a5b46ec9b336fda76f6f1,oe7e3ak2zs,"Mediated Recog Prolific",1,70,2023-05-08T22:21:31+00:00,3.4382598400116,7,versionD_stim.csv,ReadVersion_Recog.csv,"Read Recog",Read4,,BOX,RECOG,Control,62,68,Likert,User,1,"Was this item previously studied?",CONTROL,Recog,1::2,2945,NO,40,-1,-1,0,0,,1
5e8a5b46ec9b336fda76f6f1,oe7e3ak2zs,"Mediated Recog Prolific",1,71,2023-05-08T22:21:34+00:00,2.8945300579071,7,versionD_stim.csv,ReadVersion_Recog.csv,"Read Recog",Read4,,CHARM,RECOG,Control,95,87,Likert,User,1,"Was this item previously studied?",CONTROL,Recog,1::2,2404,NO,0,-1,-1,0,0,,1
5e8a5b46ec9b336fda76f6f1,oe7e3ak2zs,"Mediated Recog Prolific",1,72,2023-05-08T22:21:36+00:00,1.9243469238281,7,versionD_stim.csv,ReadVersion_Recog.csv,"Read Recog",Read4,,MAROON,RECOG,Control,91,86,Likert,User,1,"Was this item previously studied?",CONTROL,Recog,1::2,1425,NO,25,-1,-1,0,0,,1
5e8a5b46ec9b336fda76f6f1,oe7e3ak2zs,"Mediated Recog Prolific",1,73,2023-05-08T22:21:38+00:00,2.3747391700745,7,versionD_stim.csv,ReadVersion_Recog.csv,"Read Recog",Read4,,STRIPES,RECOG,Control,61,132,Likert,User,1,"Was this item previously studied?",PRESENTED,Recog,1::2,1874,NO,0,-1,-1,0,0,,1
5e8a5b46ec9b336fda76f6f1,oe7e3ak2zs,"Mediated Recog Prolific",1,74,2023-05-08T22:21:40+00:00,1.887974023819,7,versionD_stim.csv,ReadVersion_Recog.csv,"Read Recog",Read4,,PHONE,RECOG,Control,97,134,Likert,User,1,"Was this item previously studied?",PRESENTED,Recog,1::2,1378,NO,28.571428571429,-1,-1,0,0,,1
5e8a5b46ec9b336fda76f6f1,oe7e3ak2zs,"Mediated Recog Prolific",1,75,2023-05-08T22:21:42+00:00,1.9354128837585,7,versionD_stim.csv,ReadVersion_Recog.csv,"Read Recog",Read4,,ROD,RECOG,Control,100,114,Likert,User,1,"Was this item previously studied?",PRESENTED,Recog,1::2,1454,NO,40,-1,-1,0,0,,1
5e8a5b46ec9b336fda76f6f1,oe7e3ak2zs,"Mediated Recog Prolific",1,76,2023-05-08T22:21:44+00:00,2.4463720321655,7,versionD_stim.csv,ReadVersion_Recog.csv,"Read Recog",Read4,,BASEBALL,RECOG,Presented,129,62,Likert,User,1,"Was this item previously studied?",CONTROL,Recog,1::2,1955,YES,18.181818181818,-1,-1,0,0,,1
5e8a5b46ec9b336fda76f6f1,oe7e3ak2zs,"Mediated Recog Prolific",1,77,2023-05-08T22:21:46+00:00,2.0061569213867,7,versionD_stim.csv,ReadVersion_Recog.csv,"Read Recog",Read4,,CLOTHES,RECOG,Presented,124,100,Likert,User,1,"Was this item previously studied?",CONTROL,Recog,1::2,1507,NO,22.222222222222,-1,-1,0,0,,1
5e8a5b46ec9b336fda76f6f1,oe7e3ak2zs,"Mediated Recog Prolific",1,78,2023-05-08T22:21:49+00:00,2.3288850784302,7,versionD_stim.csv,ReadVersion_Recog.csv,"Read Recog",Read4,,FIGHT,RECOG,Presented,131,81,Likert,User,1,"Was this item previously studied?",CONTROL,Recog,1::2,1837,NO,0,-1,-1,0,0,,1
5e8a5b46ec9b336fda76f6f1,oe7e3ak2zs,"Mediated Recog Prolific",1,79,2023-05-08T22:21:51+00:00,2.2294270992279,7,versionD_stim.csv,ReadVersion_Recog.csv,"Read Recog",Read4,,CAR,RECOG,Presented,137,64,Likert,User,1,"Was this item previously studied?",CONTROL,Recog,1::2,1736,NO,0,-1,-1,0,0,,1
5e8a5b46ec9b336fda76f6f1,oe7e3ak2zs,"Mediated Recog Prolific",1,80,2023-05-08T22:21:53+00:00,1.8944239616394,7,versionD_stim.csv,ReadVersion_Recog.csv,"Read Recog",Read4,,WHEEL,RECOG,Control,69,97,Likert,User,1,"Was this item previously studied?",CONTROL,Recog,1::2,1393,NO,0,-1,-1,0,0,,1
5e8a5b46ec9b336fda76f6f1,oe7e3ak2zs,"Mediated Recog Prolific",1,81,2023-05-08T22:21:55+00:00,2.4191310405731,7,versionD_stim.csv,ReadVersion_Recog.csv,"Read Recog",Read4,,TRASH,RECOG,Control,76,90,Likert,User,1,"Was this item previously studied?",CONTROL,Recog,1::2,1911,YES,25,-1,-1,0,0,,1
5e8a5b46ec9b336fda76f6f1,oe7e3ak2zs,"Mediated Recog Prolific",1,82,2023-05-08T22:21:57+00:00,2.0772848129272,7,versionD_stim.csv,ReadVersion_Recog.csv,"Read Recog",Read4,,SILK,RECOG,Control,65,115,Likert,User,1,"Was this item previously studied?",PRESENTED,Recog,1::2,1576,YES,28.571428571429,-1,-1,0,0,,1
5e8a5b46ec9b336fda76f6f1,oe7e3ak2zs,"Mediated Recog Prolific",1,83,2023-05-08T22:21:59+00:00,1.8611180782318,7,versionD_stim.csv,ReadVersion_Recog.csv,"Read Recog",Read4,,BUSINESS,RECOG,Presented,144,133,Likert,User,1,"Was this item previously studied?",PRESENTED,Recog,1::2,1358,YES,36.363636363636,-1,-1,0,0,,1
5e8a5b46ec9b336fda76f6f1,oe7e3ak2zs,"Mediated Recog Prolific",1,84,2023-05-08T22:22:01+00:00,1.683217048645,7,versionD_stim.csv,ReadVersion_Recog.csv,"Read Recog",Read4,,PAPER,RECOG,Presented,127,103,Likert,User,1,"Was this item previously studied?",PRESENTED,Recog,1::2,1193,YES,25,-1,-1,0,0,,1
5e8a5b46ec9b336fda76f6f1,oe7e3ak2zs,"Mediated Recog Prolific",1,85,2023-05-08T22:22:03+00:00,1.8014440536499,7,versionD_stim.csv,ReadVersion_Recog.csv,"Read Recog",Read4,,RED,RECOG,Presented,125,95,Likert,User,1,"Was this item previously studied?",CONTROL,Recog,1::2,1301,NO,0,-1,-1,0,0,,1
5e8a5b46ec9b336fda76f6f1,oe7e3ak2zs,"Mediated Recog Prolific",1,86,2023-05-08T22:22:05+00:00,2.091237783432,7,versionD_stim.csv,ReadVersion_Recog.csv,"Read Recog",Read4,,QUIET,RECOG,Control,63,71,Likert,User,1,"Was this item previously studied?",CONTROL,Recog,1::2,1583,YES,25,-1,-1,0,0,,1
5e8a5b46ec9b336fda76f6f1,oe7e3ak2zs,"Mediated Recog Prolific",1,87,2023-05-08T22:22:07+00:00,2.2517251968384,7,versionD_stim.csv,ReadVersion_Recog.csv,"Read Recog",Read4,,KEYS,RECOG,Control,96,119,Likert,User,1,"Was this item previously studied?",PRESENTED,Recog,1::2,1745,NO,0,-1,-1,0,0,,1
5e8a5b46ec9b336fda76f6f1,oe7e3ak2zs,"Mediated Recog Prolific",1,88,2023-05-08T22:22:09+00:00,1.8899450302124,7,versionD_stim.csv,ReadVersion_Recog.csv,"Read Recog",Read4,,DONKEY,RECOG,Control,85,135,Likert,User,1,"Was this item previously studied?",PRESENTED,Recog,1::2,1371,NO,25,-1,-1,0,0,,1
5e8a5b46ec9b336fda76f6f1,oe7e3ak2zs,"Mediated Recog Prolific",1,89,2023-05-08T22:22:11+00:00,1.6471478939056,7,versionD_stim.csv,ReadVersion_Recog.csv,"Read Recog",Read4,,ACCIDENT,RECOG,Presented,139,93,Likert,User,1,"Was this item previously studied?",CONTROL,Recog,1::2,1156,NO,20,-1,-1,0,0,,1
5e8a5b46ec9b336fda76f6f1,oe7e3ak2zs,"Mediated Recog Prolific",1,90,2023-05-08T22:22:13+00:00,2.0669720172882,7,versionD_stim.csv,ReadVersion_Recog.csv,"Read Recog",Read4,,CARD,RECOG,Control,88,89,Likert,User,1,"Was this item previously studied?",CONTROL,Recog,1::2,1570,NO,0,-1,-1,0,0,,1
5e8a5b46ec9b336fda76f6f1,oe7e3ak2zs,"Mediated Recog Prolific",1,91,2023-05-08T22:22:15+00:00,2.0600669384003,7,versionD_stim.csv,ReadVersion_Recog.csv,"Read Recog",Read4,,HAND,RECOG,Control,104,84,Likert,User,1,"Was this item previously studied?",CONTROL,Recog,1::2,1572,NO,33.333333333333,-1,-1,0,0,,1
5e8a5b46ec9b336fda76f6f1,oe7e3ak2zs,"Mediated Recog Prolific",1,92,2023-05-08T22:22:18+00:00,2.8361871242523,7,versionD_stim.csv,ReadVersion_Recog.csv,"Read Recog",Read4,,COLD,RECOG,Presented,132,118,Likert,User,1,"Was this item previously studied?",PRESENTED,Recog,1::2,2320,YES,0,-1,-1,0,0,,1
5e8a5b46ec9b336fda76f6f1,oe7e3ak2zs,"Mediated Recog Prolific",1,93,2023-05-08T22:22:20+00:00,1.9824669361115,7,versionD_stim.csv,ReadVersion_Recog.csv,"Read Recog",Read4,,MUSCLE,RECOG,Presented,120,116,Likert,User,1,"Was this item previously studied?",PRESENTED,Recog,1::2,1486,YES,22.222222222222,-1,-1,0,0,,1
5e8a5b46ec9b336fda76f6f1,oe7e3ak2zs,"Mediated Recog Prolific",1,94,2023-05-08T22:22:22+00:00,2.867292881012,7,versionD_stim.csv,ReadVersion_Recog.csv,"Read Recog",Read4,,RIDDLE,RECOG,Presented,140,65,Likert,User,1,"Was this item previously studied?",CONTROL,Recog,1::2,2384,YES,22.222222222222,-1,-1,0,0,,1
5e8a5b46ec9b336fda76f6f1,oe7e3ak2zs,"Mediated Recog Prolific",1,95,2023-05-08T22:22:24+00:00,1.8386499881744,7,versionD_stim.csv,ReadVersion_Recog.csv,"Read Recog",Read4,,CARPET,RECOG,Control,70,140,Likert,User,1,"Was this item previously studied?",PRESENTED,Recog,1::2,1329,NO,0,-1,-1,0,0,,1
5e8a5b46ec9b336fda76f6f1,oe7e3ak2zs,"Mediated Recog Prolific",1,96,2023-05-08T22:22:27+00:00,2.8521611690521,7,versionD_stim.csv,ReadVersion_Recog.csv,"Read Recog",Read4,,SNOW,RECOG,Presented,106,106,Likert,User,1,"Was this item previously studied?",PRESENTED,Recog,1::2,2365,NO,66.666666666667,-1,-1,0,0,,1
5e8a5b46ec9b336fda76f6f1,oe7e3ak2zs,"Mediated Recog Prolific",1,97,2023-05-08T22:22:29+00:00,1.9768028259277,7,versionD_stim.csv,ReadVersion_Recog.csv,"Read Recog",Read4,,STEAK,RECOG,Control,93,123,Likert,User,1,"Was this item previously studied?",PRESENTED,Recog,1::2,1461,YES,25,-1,-1,0,0,,1
5e8a5b46ec9b336fda76f6f1,oe7e3ak2zs,"Mediated Recog Prolific",1,98,2023-05-08T22:22:31+00:00,1.6923320293427,7,versionD_stim.csv,ReadVersion_Recog.csv,"Read Recog",Read4,,COLLAR,RECOG,Presented,108,108,Likert,User,1,"Was this item previously studied?",PRESENTED,Recog,1::2,1196,YES,0,-1,-1,0,0,,1
5e8a5b46ec9b336fda76f6f1,oe7e3ak2zs,"Mediated Recog Prolific",1,99,2023-05-08T22:22:32+00:00,1.5818431377411,7,versionD_stim.csv,ReadVersion_Recog.csv,"Read Recog",Read4,,WOLF,RECOG,Presented,138,137,Likert,User,1,"Was this item previously studied?",PRESENTED,Recog,1::2,1080,YES,0,-1,-1,0,0,,1
5e8a5b46ec9b336fda76f6f1,oe7e3ak2zs,"Mediated Recog Prolific",1,100,2023-05-08T22:22:34+00:00,1.8155620098114,7,versionD_stim.csv,ReadVersion_Recog.csv,"Read Recog",Read4,,HAIR,RECOG,Control,74,142,Likert,User,1,"Was this item previously studied?",PRESENTED,Recog,1::2,1307,YES,0,-1,-1,0,0,,1
5e8a5b46ec9b336fda76f6f1,oe7e3ak2zs,"Mediated Recog Prolific",1,101,2023-05-08T22:22:37+00:00,2.7768590450287,7,versionD_stim.csv,ReadVersion_Recog.csv,"Read Recog",Read4,,MONEY,RECOG,Control,77,105,Likert,User,1,"Was this item previously studied?",PRESENTED,Recog,1::2,2255,NO,28.571428571429,-1,-1,0,0,,1
5e8a5b46ec9b336fda76f6f1,oe7e3ak2zs,"Mediated Recog Prolific",1,102,2023-05-08T22:22:39+00:00,1.8639857769012,7,versionD_stim.csv,ReadVersion_Recog.csv,"Read Recog",Read4,,BRONZE,RECOG,Presented,148,120,Likert,User,1,"Was this item previously studied?",PRESENTED,Recog,1::2,1364,YES,22.222222222222,-1,-1,0,0,,1
5e8a5b46ec9b336fda76f6f1,oe7e3ak2zs,"Mediated Recog Prolific",1,103,2023-05-08T22:22:41+00:00,1.6985321044922,7,versionD_stim.csv,ReadVersion_Recog.csv,"Read Recog",Read4,,LAWYER,RECOG,Presented,111,130,Likert,User,1,"Was this item previously studied?",PRESENTED,Recog,1::2,1184,YES,44.444444444444,-1,-1,0,0,,1
5e8a5b46ec9b336fda76f6f1,oe7e3ak2zs,"Mediated Recog Prolific",1,104,2023-05-08T22:22:42+00:00,1.9218809604645,7,versionD_stim.csv,ReadVersion_Recog.csv,"Read Recog",Read4,,THIGH,RECOG,Presented,117,146,Likert,User,1,"Was this item previously studied?",PRESENTED,Recog,1::2,1428,YES,0,-1,-1,0,0,,1
5e8a5b46ec9b336fda76f6f1,oe7e3ak2zs,"Mediated Recog Prolific",1,105,2023-05-08T22:22:46+00:00,3.0638201236725,7,versionD_stim.csv,ReadVersion_Recog.csv,"Read Recog",Read4,,HEAD,RECOG,Control,78,109,Likert,User,1,"Was this item previously studied?",PRESENTED,Recog,1::2,2574,NO,0,-1,-1,0,0,,1
5e8a5b46ec9b336fda76f6f1,oe7e3ak2zs,"Mediated Recog Prolific",1,106,2023-05-08T22:22:47+00:00,1.9083478450775,7,versionD_stim.csv,ReadVersion_Recog.csv,"Read Recog",Read4,,FISH,RECOG,Control,90,136,Likert,User,1,"Was this item previously studied?",PRESENTED,Recog,1::2,1409,NO,0,-1,-1,0,0,,1
5e8a5b46ec9b336fda76f6f1,oe7e3ak2zs,"Mediated Recog Prolific",1,107,2023-05-08T22:22:49+00:00,2.0471951961517,7,versionD_stim.csv,ReadVersion_Recog.csv,"Read Recog",Read4,,BOUNCE,RECOG,Control,67,76,Likert,User,1,"Was this item previously studied?",CONTROL,Recog,1::2,1550,NO,25,-1,-1,0,0,,1
5e8a5b46ec9b336fda76f6f1,oe7e3ak2zs,"Mediated Recog Prolific",1,108,2023-05-08T22:22:52+00:00,2.2543427944183,7,versionD_stim.csv,ReadVersion_Recog.csv,"Read Recog",Read4,,ELECTION,RECOG,Control,94,141,Likert,User,1,"Was this item previously studied?",PRESENTED,Recog,1::2,1762,YES,18.181818181818,-1,-1,0,0,,1
5e8a5b46ec9b336fda76f6f1,oe7e3ak2zs,"Mediated Recog Prolific",1,109,2023-05-08T22:22:54+00:00,2.0575389862061,7,versionD_stim.csv,ReadVersion_Recog.csv,"Read Recog",Read4,,STING,RECOG,Presented,130,143,Likert,User,1,"Was this item previously studied?",PRESENTED,Recog,1::2,1567,YES,25,-1,-1,0,0,,1
5e8a5b46ec9b336fda76f6f1,oe7e3ak2zs,"Mediated Recog Prolific",1,110,2023-05-08T22:22:56+00:00,2.5005581378937,7,versionD_stim.csv,ReadVersion_Recog.csv,"Read Recog",Read4,,CLOTH,RECOG,Control,92,91,Likert,User,1,"Was this item previously studied?",CONTROL,Recog,1::2,2000,YES,0,-1,-1,0,0,,1
5e8a5b46ec9b336fda76f6f1,oe7e3ak2zs,"Mediated Recog Prolific",1,111,2023-05-08T22:23:00+00:00,3.8393669128418,7,versionD_stim.csv,ReadVersion_Recog.csv,"Read Recog",Read4,,DRINK,RECOG,Presented,112,110,Likert,User,1,"Was this item previously studied?",PRESENTED,Recog,1::2,3055,NO,28.571428571429,-1,-1,0,0,,1
5e8a5b46ec9b336fda76f6f1,oe7e3ak2zs,"Mediated Recog Prolific",1,112,2023-05-08T22:23:02+00:00,2.2336130142212,7,versionD_stim.csv,ReadVersion_Recog.csv,"Read Recog",Read4,,BELT,RECOG,Control,101,139,Likert,User,1,"Was this item previously studied?",PRESENTED,Recog,1::2,1773,NO,0,-1,-1,0,0,,1
5e8a5b46ec9b336fda76f6f1,oe7e3ak2zs,"Mediated Recog Prolific",1,113,2023-05-08T22:23:04+00:00,1.7789869308472,7,versionD_stim.csv,ReadVersion_Recog.csv,"Read Recog",Read4,,OUNCE,RECOG,Presented,147,127,Likert,User,1,"Was this item previously studied?",PRESENTED,Recog,1::2,1323,YES,25,-1,-1,0,0,,1
5e8a5b46ec9b336fda76f6f1,oe7e3ak2zs,"Mediated Recog Prolific",1,114,2023-05-08T22:23:07+00:00,3.0676620006561,7,versionD_stim.csv,ReadVersion_Recog.csv,"Read Recog",Read4,,TOIL,RECOG,Presented,146,111,Likert,User,1,"Was this item previously studied?",PRESENTED,Recog,1::2,2602,NO,33.333333333333,-1,-1,0,0,,0.692
5e8a5b46ec9b336fda76f6f1,oe7e3ak2zs,"Mediated Recog Prolific",1,115,2023-05-08T22:23:11+00:00,3.4564340114594,7,versionD_stim.csv,ReadVersion_Recog.csv,"Read Recog",Read4,,DARK,RECOG,Control,73,80,Likert,User,1,"Was this item previously studied?",CONTROL,Recog,1::2,2996,NO,0,-1,-1,0,0,,1
5e8a5b46ec9b336fda76f6f1,oe7e3ak2zs,"Mediated Recog Prolific",1,116,2023-05-08T22:23:17+00:00,6.1417260169983,7,versionD_stim.csv,ReadVersion_Recog.csv,"Read Recog",Read4,,SMELL,RECOG,Presented,128,112,Likert,User,1,"Was this item previously studied?",PRESENTED,Recog,1::2,5368,YES,25,-1,-1,0,0,,1
5e8a5b46ec9b336fda76f6f1,oe7e3ak2zs,"Mediated Recog Prolific",1,117,2023-05-08T22:23:25+00:00,7.6892521381378,7,versionD_stim.csv,ReadVersion_Recog.csv,"Read Recog",Read4,,KNOB,RECOG,Presented,119,88,Likert,User,1,"Was this item previously studied?",CONTROL,Recog,1::2,6909,YES,0,-1,-1,0,0,,0.314
5e8a5b46ec9b336fda76f6f1,oe7e3ak2zs,"Mediated Recog Prolific",1,118,2023-05-08T22:23:26+00:00,1.9805519580841,7,versionD_stim.csv,ReadVersion_Recog.csv,"Read Recog",Read4,,BANG,RECOG,Control,105,117,Likert,User,1,"Was this item previously studied?",PRESENTED,Recog,1::2,1533,NO,33.333333333333,-1,-1,0,0,,1
5e8a5b46ec9b336fda76f6f1,oe7e3ak2zs,"Mediated Recog Prolific",1,119,2023-05-08T22:23:28+00:00,1.9460439682007,7,versionD_stim.csv,ReadVersion_Recog.csv,"Read Recog",Read4,,SENTENCE,RECOG,Control,82,138,Likert,User,1,"Was this item previously studied?",PRESENTED,Recog,1::2,1478,NO,20,-1,-1,0,0,,1
5e8a5b46ec9b336fda76f6f1,oe7e3ak2zs,"Mediated Recog Prolific",1,120,2023-05-08T22:23:30+00:00,1.7863209247589,7,versionD_stim.csv,ReadVersion_Recog.csv,"Read Recog",Read4,,STOP,RECOG,Presented,107,67,Likert,User,1,"Was this item previously studied?",CONTROL,Recog,1::2,1303,YES,28.571428571429,-1,-1,0,0,,1
5e8a5b46ec9b336fda76f6f1,oe7e3ak2zs,"Mediated Recog Prolific",1,121,2023-05-08T22:23:32+00:00,1.7463212013245,7,versionD_stim.csv,ReadVersion_Recog.csv,"Read Recog",Read4,,CLEAN,RECOG,Control,83,72,Likert,User,1,"Was this item previously studied?",CONTROL,Recog,1::2,1225,NO,28.571428571429,-1,-1,0,0,,1
5e8a5b46ec9b336fda76f6f1,oe7e3ak2zs,"Mediated Recog Prolific",1,122,2023-05-08T22:23:33+00:00,1.4900479316711,7,versionD_stim.csv,ReadVersion_Recog.csv,"Read Recog",Read4,,FLOWER,RECOG,Control,89,96,Likert,User,1,"Was this item previously studied?",CONTROL,Recog,1::2,1013,NO,25,-1,-1,0,0,,1
5e8a5b46ec9b336fda76f6f1,oe7e3ak2zs,"Mediated Recog Prolific",1,123,2023-05-08T22:23:35+00:00,1.7973470687866,7,versionD_stim.csv,ReadVersion_Recog.csv,"Read Recog",Read4,,PEAK,RECOG,Presented,118,74,Likert,User,1,"Was this item previously studied?",CONTROL,Recog,1::2,1314,NO,0,-1,-1,0,0,,1
5e8a5b46ec9b336fda76f6f1,oe7e3ak2zs,"Mediated Recog Prolific",1,124,2023-05-08T22:23:37+00:00,1.7516717910767,7,versionD_stim.csv,ReadVersion_Recog.csv,"Read Recog",Read4,,HORN,RECOG,Presented,143,79,Likert,User,1,"Was this item previously studied?",CONTROL,Recog,1::2,1268,YES,0,-1,-1,0,0,,1
5e8a5b46ec9b336fda76f6f1,oe7e3ak2zs,"Mediated Recog Prolific",1,125,2023-05-08T22:23:39+00:00,1.9515070915222,7,versionD_stim.csv,ReadVersion_Recog.csv,"Read Recog",Read4,,DRINK,RECOG,Control,87,121,Likert,User,1,"Was this item previously studied?",PRESENTED,Recog,1::2,1486,YES,0,-1,-1,0,0,,1
5e8a5b46ec9b336fda76f6f1,oe7e3ak2zs,"Mediated Recog Prolific",1,126,2023-05-08T22:23:41+00:00,2.0746359825134,7,versionD_stim.csv,ReadVersion_Recog.csv,"Read Recog",Read4,,PLANT,RECOG,Control,80,82,Likert,User,1,"Was this item previously studied?",CONTROL,Recog,1::2,1594,YES,0,-1,-1,0,0,,1
5e8a5b46ec9b336fda76f6f1,oe7e3ak2zs,"Mediated Recog Prolific",1,127,2023-05-08T22:23:43+00:00,1.6015179157257,7,versionD_stim.csv,ReadVersion_Recog.csv,"Read Recog",Read4,,LOVE,RECOG,Control,86,66,Likert,User,1,"Was this item previously studied?",CONTROL,Recog,1::2,1143,NO,33.333333333333,-1,-1,0,0,,1
5e8a5b46ec9b336fda76f6f1,oe7e3ak2zs,"Mediated Recog Prolific",1,128,2023-05-08T22:23:44+00:00,1.6263430118561,7,versionD_stim.csv,ReadVersion_Recog.csv,"Read Recog",Read4,,FIRE,RECOG,Presented,126,131,Likert,User,1,"Was this item previously studied?",PRESENTED,Recog,1::2,1141,NO,0,-1,-1,0,0,,1
5e8a5b46ec9b336fda76f6f1,oe7e3ak2zs,"Mediated Recog Prolific",1,129,2023-05-08T22:23:46+00:00,2.1305441856384,7,versionD_stim.csv,ReadVersion_Recog.csv,"Read Recog",Read4,,PLANT,RECOG,Presented,121,61,Likert,User,1,"Was this item previously studied?",CONTROL,Recog,1::2,1678,YES,0,-1,-1,0,0,,1
5e8a5b46ec9b336fda76f6f1,oe7e3ak2zs,"Mediated Recog Prolific",1,130,2023-05-08T22:23:48+00:00,1.7033498287201,7,versionD_stim.csv,ReadVersion_Recog.csv,"Read Recog",Read4,,SEED,RECOG,Presented,114,75,Likert,User,1,"Was this item previously studied?",CONTROL,Recog,1::2,1254,YES,28.571428571429,-1,-1,0,0,,1
5e8a5b46ec9b336fda76f6f1,oe7e3ak2zs,"Mediated Recog Prolific",1,131,2023-05-08T22:23:50+00:00,1.8602390289307,7,versionD_stim.csv,ReadVersion_Recog.csv,"Read Recog",Read4,,COW,RECOG,Presented,133,125,Likert,User,1,"Was this item previously studied?",PRESENTED,Recog,1::2,1379,NO,40,-1,-1,0,0,,1
5e8a5b46ec9b336fda76f6f1,oe7e3ak2zs,"Mediated Recog Prolific",1,132,2023-05-08T22:23:53+00:00,2.7012281417847,7,versionD_stim.csv,ReadVersion_Recog.csv,"Read Recog",Read4,,COTTON,RECOG,Control,75,145,Likert,User,1,"Was this item previously studied?",PRESENTED,Recog,1::2,2243,YES,0,-1,-1,0,0,,1
5e8a5b46ec9b336fda76f6f1,oe7e3ak2zs,"Mediated Recog Prolific",1,133,2023-05-08T22:23:54+00:00,1.8012528419495,7,versionD_stim.csv,ReadVersion_Recog.csv,"Read Recog",Read4,,ISLAND,RECOG,Presented,109,104,Likert,User,1,"Was this item previously studied?",PRESENTED,Recog,1::2,1350,YES,22.222222222222,-1,-1,0,0,,1
5e8a5b46ec9b336fda76f6f1,oe7e3ak2zs,"Mediated Recog Prolific",1,134,2023-05-08T22:23:56+00:00,1.7201390266418,7,versionD_stim.csv,ReadVersion_Recog.csv,"Read Recog",Read4,,VASE,RECOG,Presented,136,85,Likert,User,1,"Was this item previously studied?",CONTROL,Recog,1::2,1263,YES,28.571428571429,-1,-1,0,0,,1
5e8a5b46ec9b336fda76f6f1,oe7e3ak2zs,"Mediated Recog Prolific",1,135,2023-05-08T22:23:59+00:00,2.3417840003967,7,versionD_stim.csv,ReadVersion_Recog.csv,"Read Recog",Read4,,SMELL,RECOG,Presented,110,60,Likert,User,1,"Was this item previously studied?",CONTROL,Recog,1::2,1873,NO,0,-1,-1,0,0,,1
5e8a5b46ec9b336fda76f6f1,oe7e3ak2zs,"Mediated Recog Prolific",1,136,2023-05-08T22:24:01+00:00,2.1810410022736,7,versionD_stim.csv,ReadVersion_Recog.csv,"Read Recog",Read4,,SACK,RECOG,Presented,142,98,Likert,User,1,"Was this item previously studied?",CONTROL,Recog,1::2,1470,NO,0,-1,-1,0,0,,1
5e8a5b46ec9b336fda76f6f1,oe7e3ak2zs,"Mediated Recog Prolific",1,137,2023-05-08T22:24:03+00:00,2.4285171031952,7,versionD_stim.csv,ReadVersion_Recog.csv,"Read Recog",Read4,,SHAKE,RECOG,Control,98,77,Likert,User,1,"Was this item previously studied?",CONTROL,Recog,1::2,1661,NO,0,-1,-1,0,0,,1
5e8a5b46ec9b336fda76f6f1,oe7e3ak2zs,"Mediated Recog Prolific",1,138,2023-05-08T22:24:05+00:00,1.8722870349884,7,versionD_stim.csv,ReadVersion_Recog.csv,"Read Recog",Read4,,LEG,RECOG,Presented,150,122,Likert,User,1,"Was this item previously studied?",PRESENTED,Recog,1::2,1370,YES,33.333333333333,-1,-1,0,0,,1
5e8a5b46ec9b336fda76f6f1,oe7e3ak2zs,"Mediated Recog Prolific",1,139,2023-05-08T22:24:07+00:00,1.7237818241119,7,versionD_stim.csv,ReadVersion_Recog.csv,"Read Recog",Read4,,DANCE,RECOG,Control,68,70,Likert,User,1,"Was this item previously studied?",CONTROL,Recog,1::2,1222,NO,28.571428571429,-1,-1,0,0,,1
5e8a5b46ec9b336fda76f6f1,oe7e3ak2zs,"Mediated Recog Prolific",1,140,2023-05-08T22:24:08+00:00,1.5853400230408,7,versionD_stim.csv,ReadVersion_Recog.csv,"Read Recog",Read4,,SYRUP,RECOG,Control,66,113,Likert,User,1,"Was this item previously studied?",PRESENTED,Recog,1::2,1085,NO,0,-1,-1,0,0,,1
5e8a5b46ec9b336fda76f6f1,oe7e3ak2zs,"Mediated Recog Prolific",1,141,2023-05-08T22:24:10+00:00,1.6246531009674,7,versionD_stim.csv,ReadVersion_Recog.csv,"Read Recog",Read4,,BIRD,RECOG,Control,81,83,Likert,User,1,"Was this item previously studied?",CONTROL,Recog,1::2,1135,NO,0,-1,-1,0,0,,1
5e8a5b46ec9b336fda76f6f1,oe7e3ak2zs,"Mediated Recog Prolific",1,142,2023-05-08T22:24:12+00:00,1.6999399662018,7,versionD_stim.csv,ReadVersion_Recog.csv,"Read Recog",Read4,,HAMMER,RECOG,Presented,123,129,Likert,User,1,"Was this item previously studied?",PRESENTED,Recog,1::2,1214,NO,0,-1,-1,0,0,,1
5e8a5b46ec9b336fda76f6f1,oe7e3ak2zs,"Mediated Recog Prolific",1,143,2023-05-08T22:24:14+00:00,1.9186170101166,7,versionD_stim.csv,ReadVersion_Recog.csv,"Read Recog",Read4,,FICTION,RECOG,Control,99,59,Likert,User,1,"Was this item previously studied?",CONTROL,Recog,1::2,1419,NO,22.222222222222,-1,-1,0,0,,1
5e8a5b46ec9b336fda76f6f1,oe7e3ak2zs,"Mediated Recog Prolific",1,144,2023-05-08T22:24:15+00:00,1.6330759525299,7,versionD_stim.csv,ReadVersion_Recog.csv,"Read Recog",Read4,,FINGER,RECOG,Control,72,73,Likert,User,1,"Was this item previously studied?",CONTROL,Recog,1::2,1138,NO,25,-1,-1,0,0,,1
5e8a5b46ec9b336fda76f6f1,oe7e3ak2zs,"Mediated Recog Prolific",1,145,2023-05-08T22:24:17+00:00,2.0493700504303,7,versionD_stim.csv,ReadVersion_Recog.csv,"Read Recog",Read4,,CUT,RECOG,Presented,122,69,Likert,User,1,"Was this item previously studied?",CONTROL,Recog,1::2,1541,NO,0,-1,-1,0,0,,1
5e8a5b46ec9b336fda76f6f1,oe7e3ak2zs,"Mediated Recog Prolific",1,146,2023-05-08T22:24:19+00:00,1.6948289871216,7,versionD_stim.csv,ReadVersion_Recog.csv,"Read Recog",Read4,,CAVE,RECOG,Presented,115,99,Likert,User,1,"Was this item previously studied?",CONTROL,Recog,1::2,1203,NO,0,-1,-1,0,0,,1
5e8a5b46ec9b336fda76f6f1,oe7e3ak2zs,"Mediated Recog Prolific",1,147,2023-05-08T22:24:21+00:00,2.5364820957184,7,versionD_stim.csv,ReadVersion_Recog.csv,"Read Recog",Read4,,BUG,RECOG,Presented,134,57,Likert,User,1,"Was this item previously studied?",CONTROL,Recog,1::2,2042,NO,0,-1,-1,0,0,,1
5e8a5b46ec9b336fda76f6f1,oe7e3ak2zs,"Mediated Recog Prolific",1,148,2023-05-08T22:24:24+00:00,2.847648859024,7,versionD_stim.csv,ReadVersion_Recog.csv,"Read Recog",Read4,,DONKEY,RECOG,Control,79,126,Likert,User,1,"Was this item previously studied?",PRESENTED,Recog,1::2,2352,NO,25,-1,-1,0,0,,1
5e8a5b46ec9b336fda76f6f1,oe7e3ak2zs,"Mediated Recog Prolific",1,149,2023-05-08T22:24:26+00:00,1.6611020565033,7,versionD_stim.csv,ReadVersion_Recog.csv,"Read Recog",Read4,,TICK,RECOG,Control,102,63,Likert,User,1,"Was this item previously studied?",CONTROL,Recog,1::2,1175,NO,0,-1,-1,0,0,,1
5e8a5b46ec9b336fda76f6f1,oe7e3ak2zs,"Mediated Recog Prolific",1,150,2023-05-08T22:24:29+00:00,3.4785158634186,7,versionD_stim.csv,ReadVersion_Recog.csv,"Read Recog",Read4,,CLUTTER,RECOG,Presented,141,124,Likert,User,1,"Was this item previously studied?",PRESENTED,Recog,1::2,2984,NO,0,-1,-1,0,0,,1
5e8a5b46ec9b336fda76f6f1,oe7e3ak2zs,"Mediated Recog Prolific",1,151,2023-05-08T22:24:31+00:00,1.7667510509491,7,versionD_stim.csv,ReadVersion_Recog.csv,"Read Recog",Read4,,,,,,0,Instruct,User,-,"You have completed this section. Please press Enter.",,Instruct7,,1250,,,-1,-1,,,,1
5e8a5b46ec9b336fda76f6f1,oe7e3ak2zs,"Mediated Recog Prolific",1,152,2023-05-08T22:24:34+00:00,2.2913150787354,7,versionD_stim.csv,ReadVersion_Recog.csv,"Read Recog",Read4,,,,,,0,Instruct,User,-,"The following screen will ask you a few questions abour your experience today. You must complete these questions to receive credit.",,Instruct8,,1793,,,-1,-1,,,,1
