Username,ID,ExperimentName,Session,Trial,Date,TimeDif,"Condition Number","Stimuli File","Order File","Condition Description","Condition Notes",Stimuli*Cue,Stimuli*Answer,Stimuli*Shuffle,"Stimuli*Stimuli Notes",Stimuli*Value,Procedure*Item,"Procedure*Trial Type","Procedure*Max Time","Procedure*Min Time",Procedure*Text,"Procedure*Procedure Notes",Procedure*Shuffle,Procedure*,Response*RT,Response*Response,Response*Accuracy,Response*RTfirst,Response*RTlast,Response*strictAcc,Response*lenientAcc,Response*focus,Response*Focus
56d684fffc7879000c77d87f,60i32eua98,"Mediated Recog Prolific",1,1,2023-05-08T21:02:47+00:00,6.2152810096741,5,versionC_stim.csv,ReadVersion_Recog.csv,"Read Recog",Read3,,,,,,0,Instruct,-,5,"In this section, you will be presented with a series of word pairs. Please study each word pair! Your memory will be tested!",Initial_Instruct,Instruct1,,5915,,,-1,-1,,,,1
56d684fffc7879000c77d87f,60i32eua98,"Mediated Recog Prolific",1,2,2023-05-08T21:02:53+00:00,5.8670449256897,5,versionC_stim.csv,ReadVersion_Recog.csv,"Read Recog",Read3,,,,,,0,Instruct,User,-,"You will now begin. Press Enter when you are ready to begin.",,Instruct16,,5473,,,-1,-1,,,,0.667
56d684fffc7879000c77d87f,60i32eua98,"Mediated Recog Prolific",1,3,2023-05-08T21:02:59+00:00,5.9175579547882,5,versionC_stim.csv,ReadVersion_Recog.csv,"Read Recog",Read3,SPACE,JAM,BUFFER1,Buffer,5,5,Study,User,-,,Study/JOL,BUFFER,,5500,,,-1,-1,,,,1
56d684fffc7879000c77d87f,60i32eua98,"Mediated Recog Prolific",1,4,2023-05-08T21:03:00+00:00,1.445659160614,5,versionC_stim.csv,ReadVersion_Recog.csv,"Read Recog",Read3,PITCHER,CATCHER,BUFFER1,Buffer,2,6,Study,User,-,,Study/JOL,BUFFER,,1054,,,-1,-1,,,,1
56d684fffc7879000c77d87f,60i32eua98,"Mediated Recog Prolific",1,5,2023-05-08T21:03:02+00:00,1.8452370166779,5,versionC_stim.csv,ReadVersion_Recog.csv,"Read Recog",Read3,SCARE,FRIGHT,BUFFER1,Buffer,4,3,Study,User,-,,Study/JOL,BUFFER,,1448,,,-1,-1,,,,1
56d684fffc7879000c77d87f,60i32eua98,"Mediated Recog Prolific",1,6,2023-05-08T21:03:03+00:00,1.2593719959259,5,versionC_stim.csv,ReadVersion_Recog.csv,"Read Recog",Read3,TREES,GREEN,BUFFER1,Buffer,1,2,Study,User,-,,Study/JOL,BUFFER,,989,,,-1,-1,,,,1
56d684fffc7879000c77d87f,60i32eua98,"Mediated Recog Prolific",1,7,2023-05-08T21:03:04+00:00,1.2016708850861,5,versionC_stim.csv,ReadVersion_Recog.csv,"Read Recog",Read3,PEANUT,BUTTER,BUFFER1,Buffer,3,4,Study,User,-,,Study/JOL,BUFFER,,940,,,-1,-1,,,,1
56d684fffc7879000c77d87f,60i32eua98,"Mediated Recog Prolific",1,8,2023-05-08T21:03:06+00:00,1.7043120861053,5,versionC_stim.csv,ReadVersion_Recog.csv,"Read Recog",Read3,WAR,QUIET,Study1,M,8,24,Study,User,-,,Study/JOL,"Study Phase",,1325,,,-1,-1,,,,1
56d684fffc7879000c77d87f,60i32eua98,"Mediated Recog Prolific",1,9,2023-05-08T21:03:07+00:00,1.1036188602448,5,versionC_stim.csv,ReadVersion_Recog.csv,"Read Recog",Read3,ROOT,PLANT,Study1,F,25,27,Study,User,-,,Study/JOL,"Study Phase",,842,,,-1,-1,,,,1
56d684fffc7879000c77d87f,60i32eua98,"Mediated Recog Prolific",1,10,2023-05-08T21:03:09+00:00,1.3661391735077,5,versionC_stim.csv,ReadVersion_Recog.csv,"Read Recog",Read3,FUZZY,BANG,Study1,U,50,46,Study,User,-,,Study/JOL,"Study Phase",,1112,,,-1,-1,,,,1
56d684fffc7879000c77d87f,60i32eua98,"Mediated Recog Prolific",1,11,2023-05-08T21:03:10+00:00,1.4621238708496,5,versionC_stim.csv,ReadVersion_Recog.csv,"Read Recog",Read3,SOON,BELT,Study1,U,46,10,Study,User,-,,Study/JOL,"Study Phase",,1080,,,-1,-1,,,,1
56d684fffc7879000c77d87f,60i32eua98,"Mediated Recog Prolific",1,12,2023-05-08T21:03:11+00:00,1.1767981052399,5,versionC_stim.csv,ReadVersion_Recog.csv,"Read Recog",Read3,MULE,DONKEY,Study1,F,24,47,Study,User,-,,Study/JOL,"Study Phase",,923,,,-1,-1,,,,1
56d684fffc7879000c77d87f,60i32eua98,"Mediated Recog Prolific",1,13,2023-05-08T21:03:12+00:00,1.1978998184204,5,versionC_stim.csv,ReadVersion_Recog.csv,"Read Recog",Read3,CREDIT,CARD,Study1,F,33,19,Study,User,-,,Study/JOL,"Study Phase",,931,,,-1,-1,,,,1
56d684fffc7879000c77d87f,60i32eua98,"Mediated Recog Prolific",1,14,2023-05-08T21:03:14+00:00,1.3053221702576,5,versionC_stim.csv,ReadVersion_Recog.csv,"Read Recog",Read3,WORD,SENTENCE,Study1,F,27,18,Study,User,-,,Study/JOL,"Study Phase",,913,,,-1,-1,,,,1
56d684fffc7879000c77d87f,60i32eua98,"Mediated Recog Prolific",1,15,2023-05-08T21:03:15+00:00,1.1851499080658,5,versionC_stim.csv,ReadVersion_Recog.csv,"Read Recog",Read3,HYGIENE,CLEAN,Study1,F,28,41,Study,User,-,,Study/JOL,"Study Phase",,917,,,-1,-1,,,,1
56d684fffc7879000c77d87f,60i32eua98,"Mediated Recog Prolific",1,16,2023-05-08T21:03:17+00:00,1.6620330810547,5,versionC_stim.csv,ReadVersion_Recog.csv,"Read Recog",Read3,ORCHID,FLOWER,Study1,F,34,38,Study,User,-,,Study/JOL,"Study Phase",,945,,,-1,-1,,,,1
56d684fffc7879000c77d87f,60i32eua98,"Mediated Recog Prolific",1,17,2023-05-08T21:03:18+00:00,1.0345199108124,5,versionC_stim.csv,ReadVersion_Recog.csv,"Read Recog",Read3,BEACH,BOX,Study1,M,7,51,Study,User,-,,Study/JOL,"Study Phase",,758,,,-1,-1,,,,1
56d684fffc7879000c77d87f,60i32eua98,"Mediated Recog Prolific",1,18,2023-05-08T21:03:20+00:00,2.2469460964203,5,versionC_stim.csv,ReadVersion_Recog.csv,"Read Recog",Read3,LITTER,TRASH,Study1,F,21,40,Study,User,-,,Study/JOL,"Study Phase",,1857,,,-1,-1,,,,1
56d684fffc7879000c77d87f,60i32eua98,"Mediated Recog Prolific",1,19,2023-05-08T21:03:21+00:00,1.0670549869537,5,versionC_stim.csv,ReadVersion_Recog.csv,"Read Recog",Read3,TREE,SYRUP,Study1,M,11,22,Study,User,-,,Study/JOL,"Study Phase",,848,,,-1,-1,,,,1
56d684fffc7879000c77d87f,60i32eua98,"Mediated Recog Prolific",1,20,2023-05-08T21:03:22+00:00,1.0451078414917,5,versionC_stim.csv,ReadVersion_Recog.csv,"Read Recog",Read3,KEYS,ROD,Study1,U,45,26,Study,User,-,,Study/JOL,"Study Phase",,797,,,-1,-1,,,,1
56d684fffc7879000c77d87f,60i32eua98,"Mediated Recog Prolific",1,21,2023-05-08T21:03:23+00:00,1.4775772094727,5,versionC_stim.csv,ReadVersion_Recog.csv,"Read Recog",Read3,BIRTHDAY,PIE,Study1,M,9,48,Study,User,-,,Study/JOL,"Study Phase",,1075,,,-1,-1,,,,1
56d684fffc7879000c77d87f,60i32eua98,"Mediated Recog Prolific",1,22,2023-05-08T21:03:25+00:00,1.2521138191223,5,versionC_stim.csv,ReadVersion_Recog.csv,"Read Recog",Read3,ROUGH,SILK,Study1,M,10,8,Study,User,-,,Study/JOL,"Study Phase",,1009,,,-1,-1,,,,1
56d684fffc7879000c77d87f,60i32eua98,"Mediated Recog Prolific",1,23,2023-05-08T21:03:26+00:00,1.1947381496429,5,versionC_stim.csv,ReadVersion_Recog.csv,"Read Recog",Read3,MULE,DONKEY,Study1,F,30,43,Study,User,-,,Study/JOL,"Study Phase",,950,,,-1,-1,,,,1
56d684fffc7879000c77d87f,60i32eua98,"Mediated Recog Prolific",1,24,2023-05-08T21:03:27+00:00,1.3219029903412,5,versionC_stim.csv,ReadVersion_Recog.csv,"Read Recog",Read3,SIP,DRINK,Study1,F,32,23,Study,User,-,,Study/JOL,"Study Phase",,1067,,,-1,-1,,,,1
56d684fffc7879000c77d87f,60i32eua98,"Mediated Recog Prolific",1,25,2023-05-08T21:03:28+00:00,1.2083380222321,5,versionC_stim.csv,ReadVersion_Recog.csv,"Read Recog",Read3,NAP,SLEEP,Study1,F,29,50,Study,User,-,,Study/JOL,"Study Phase",,810,,,-1,-1,,,,1
56d684fffc7879000c77d87f,60i32eua98,"Mediated Recog Prolific",1,26,2023-05-08T21:03:29+00:00,1.0936138629913,5,versionC_stim.csv,ReadVersion_Recog.csv,"Read Recog",Read3,SCALP,HEAD,Study1,F,23,36,Study,User,-,,Study/JOL,"Study Phase",,849,,,-1,-1,,,,1
56d684fffc7879000c77d87f,60i32eua98,"Mediated Recog Prolific",1,27,2023-05-08T21:03:31+00:00,1.1427490711212,5,versionC_stim.csv,ReadVersion_Recog.csv,"Read Recog",Read3,MIRROR,MAROON,Study1,U,36,11,Study,User,-,,Study/JOL,"Study Phase",,898,,,-1,-1,,,,1
56d684fffc7879000c77d87f,60i32eua98,"Mediated Recog Prolific",1,28,2023-05-08T21:03:32+00:00,1.2604780197144,5,versionC_stim.csv,ReadVersion_Recog.csv,"Read Recog",Read3,SHELL,SHAKE,Study1,U,43,25,Study,User,-,,Study/JOL,"Study Phase",,1018,,,-1,-1,,,,1
56d684fffc7879000c77d87f,60i32eua98,"Mediated Recog Prolific",1,29,2023-05-08T21:03:33+00:00,1.3956639766693,5,versionC_stim.csv,ReadVersion_Recog.csv,"Read Recog",Read3,CRY,BOTTLE,Study1,M,16,31,Study,User,-,,Study/JOL,"Study Phase",,999,,,-1,-1,,,,1
56d684fffc7879000c77d87f,60i32eua98,"Mediated Recog Prolific",1,30,2023-05-08T21:03:34+00:00,1.1324419975281,5,versionC_stim.csv,ReadVersion_Recog.csv,"Read Recog",Read3,MEAT,KEYS,Study1,U,41,37,Study,User,-,,Study/JOL,"Study Phase",,880,,,-1,-1,,,,1
56d684fffc7879000c77d87f,60i32eua98,"Mediated Recog Prolific",1,31,2023-05-08T21:03:36+00:00,1.3518359661102,5,versionC_stim.csv,ReadVersion_Recog.csv,"Read Recog",Read3,TEMPERATURE,MORNING,Study1,U,48,12,Study,User,-,,Study/JOL,"Study Phase",,1122,,,-1,-1,,,,1
56d684fffc7879000c77d87f,60i32eua98,"Mediated Recog Prolific",1,32,2023-05-08T21:03:37+00:00,1.1649210453033,5,versionC_stim.csv,ReadVersion_Recog.csv,"Read Recog",Read3,WAGE,MONEY,Study1,F,22,34,Study,User,-,,Study/JOL,"Study Phase",,912,,,-1,-1,,,,1
56d684fffc7879000c77d87f,60i32eua98,"Mediated Recog Prolific",1,33,2023-05-08T21:03:38+00:00,1.5408079624176,5,versionC_stim.csv,ReadVersion_Recog.csv,"Read Recog",Read3,CEILING,CARPET,Study1,M,15,35,Study,User,-,,Study/JOL,"Study Phase",,1147,,,-1,-1,,,,1
56d684fffc7879000c77d87f,60i32eua98,"Mediated Recog Prolific",1,34,2023-05-08T21:03:39+00:00,0.89861392974854,5,versionC_stim.csv,ReadVersion_Recog.csv,"Read Recog",Read3,LISTEN,FICTION,Study1,U,44,13,Study,User,-,,Study/JOL,"Study Phase",,646,,,-1,-1,,,,1
56d684fffc7879000c77d87f,60i32eua98,"Mediated Recog Prolific",1,35,2023-05-08T21:03:41+00:00,1.2228729724884,5,versionC_stim.csv,ReadVersion_Recog.csv,"Read Recog",Read3,HORSE,WHEEL,Study1,M,14,45,Study,User,-,,Study/JOL,"Study Phase",,1000,,,-1,-1,,,,1
56d684fffc7879000c77d87f,60i32eua98,"Mediated Recog Prolific",1,36,2023-05-08T21:03:42+00:00,1.3380591869354,5,versionC_stim.csv,ReadVersion_Recog.csv,"Read Recog",Read3,TOOTH,HAIR,Study1,M,19,21,Study,User,-,,Study/JOL,"Study Phase",,1080,,,-1,-1,,,,1
56d684fffc7879000c77d87f,60i32eua98,"Mediated Recog Prolific",1,37,2023-05-08T21:03:43+00:00,1.2829978466034,5,versionC_stim.csv,ReadVersion_Recog.csv,"Read Recog",Read3,SWAN,BIRD,Study1,F,26,32,Study,User,-,,Study/JOL,"Study Phase",,922,,,-1,-1,,,,1
56d684fffc7879000c77d87f,60i32eua98,"Mediated Recog Prolific",1,38,2023-05-08T21:03:44+00:00,0.98333811759949,5,versionC_stim.csv,ReadVersion_Recog.csv,"Read Recog",Read3,CAKE,HAND,Study1,U,49,33,Study,User,-,,Study/JOL,"Study Phase",,735,,,-1,-1,,,,1
56d684fffc7879000c77d87f,60i32eua98,"Mediated Recog Prolific",1,39,2023-05-08T21:03:46+00:00,1.5141098499298,5,versionC_stim.csv,ReadVersion_Recog.csv,"Read Recog",Read3,WEDDING,FINGER,Study1,M,17,28,Study,User,-,,Study/JOL,"Study Phase",,1078,,,-1,-1,,,,1
56d684fffc7879000c77d87f,60i32eua98,"Mediated Recog Prolific",1,40,2023-05-08T21:03:47+00:00,1.6416251659393,5,versionC_stim.csv,ReadVersion_Recog.csv,"Read Recog",Read3,STRETCH,CLOTH,Study1,U,37,30,Study,User,-,,Study/JOL,"Study Phase",,1082,,,-1,-1,,,,1
56d684fffc7879000c77d87f,60i32eua98,"Mediated Recog Prolific",1,41,2023-05-08T21:03:48+00:00,1.1274509429932,5,versionC_stim.csv,ReadVersion_Recog.csv,"Read Recog",Read3,DAY,DARK,Study1,M,18,7,Study,User,-,,Study/JOL,"Study Phase",,722,,,-1,-1,,,,1
56d684fffc7879000c77d87f,60i32eua98,"Mediated Recog Prolific",1,42,2023-05-08T21:03:50+00:00,1.0899519920349,5,versionC_stim.csv,ReadVersion_Recog.csv,"Read Recog",Read3,SIGN,TICK,Study1,U,47,39,Study,User,-,,Study/JOL,"Study Phase",,838,,,-1,-1,,,,1
56d684fffc7879000c77d87f,60i32eua98,"Mediated Recog Prolific",1,43,2023-05-08T21:03:51+00:00,1.4799809455872,5,versionC_stim.csv,ReadVersion_Recog.csv,"Read Recog",Read3,LION,STRIPES,Study1,M,6,15,Study,User,-,,Study/JOL,"Study Phase",,1230,,,-1,-1,,,,1
56d684fffc7879000c77d87f,60i32eua98,"Mediated Recog Prolific",1,44,2023-05-08T21:03:53+00:00,1.6084439754486,5,versionC_stim.csv,ReadVersion_Recog.csv,"Read Recog",Read3,CRACKLE,ELECTION,Study1,U,39,49,Study,User,-,,Study/JOL,"Study Phase",,1367,,,-1,-1,,,,1
56d684fffc7879000c77d87f,60i32eua98,"Mediated Recog Prolific",1,45,2023-05-08T21:03:54+00:00,1.5539841651917,5,versionC_stim.csv,ReadVersion_Recog.csv,"Read Recog",Read3,MAZE,PHONE,Study1,U,42,20,Study,User,-,,Study/JOL,"Study Phase",,1193,,,-1,-1,,,,1
56d684fffc7879000c77d87f,60i32eua98,"Mediated Recog Prolific",1,46,2023-05-08T21:03:55+00:00,1.0349218845367,5,versionC_stim.csv,ReadVersion_Recog.csv,"Read Recog",Read3,AFFECTION,LOVE,Study1,F,31,9,Study,User,-,,Study/JOL,"Study Phase",,790,,,-1,-1,,,,1
56d684fffc7879000c77d87f,60i32eua98,"Mediated Recog Prolific",1,47,2023-05-08T21:03:56+00:00,0.93579697608948,5,versionC_stim.csv,ReadVersion_Recog.csv,"Read Recog",Read3,HARD,COTTON,Study1,M,20,44,Study,User,-,,Study/JOL,"Study Phase",,701,,,-1,-1,,,,1
56d684fffc7879000c77d87f,60i32eua98,"Mediated Recog Prolific",1,48,2023-05-08T21:03:58+00:00,1.4426929950714,5,versionC_stim.csv,ReadVersion_Recog.csv,"Read Recog",Read3,CIRCLE,DANCE,Study1,M,13,14,Study,User,-,,Study/JOL,"Study Phase",,1078,,,-1,-1,,,,1
56d684fffc7879000c77d87f,60i32eua98,"Mediated Recog Prolific",1,49,2023-05-08T21:03:58+00:00,0.84250116348267,5,versionC_stim.csv,ReadVersion_Recog.csv,"Read Recog",Read3,BAT,BOUNCE,Study1,M,12,29,Study,User,-,,Study/JOL,"Study Phase",,592,,,-1,-1,,,,1
56d684fffc7879000c77d87f,60i32eua98,"Mediated Recog Prolific",1,50,2023-05-08T21:04:00+00:00,1.1003158092499,5,versionC_stim.csv,ReadVersion_Recog.csv,"Read Recog",Read3,GIVE,STEAK,Study1,U,38,42,Study,User,-,,Study/JOL,"Study Phase",,850,,,-1,-1,,,,1
56d684fffc7879000c77d87f,60i32eua98,"Mediated Recog Prolific",1,51,2023-05-08T21:04:01+00:00,1.1010580062866,5,versionC_stim.csv,ReadVersion_Recog.csv,"Read Recog",Read3,TUNA,FISH,Study1,F,35,17,Study,User,-,,Study/JOL,"Study Phase",,855,,,-1,-1,,,,1
56d684fffc7879000c77d87f,60i32eua98,"Mediated Recog Prolific",1,52,2023-05-08T21:04:05+00:00,3.8765599727631,5,versionC_stim.csv,ReadVersion_Recog.csv,"Read Recog",Read3,VEHICLE,CHARM,Study1,U,40,16,Study,User,-,,Study/JOL,"Study Phase",,3496,,,-1,-1,,,,1
56d684fffc7879000c77d87f,60i32eua98,"Mediated Recog Prolific",1,53,2023-05-08T21:04:06+00:00,0.96511101722717,5,versionC_stim.csv,ReadVersion_Recog.csv,"Read Recog",Read3,SHERRIF,POLICE,BUFFER2,Buffer,52,56,Study,User,-,,Study/JOL,BUFFER2,,717,,,-1,-1,,,,1
56d684fffc7879000c77d87f,60i32eua98,"Mediated Recog Prolific",1,54,2023-05-08T21:04:07+00:00,1.1470241546631,5,versionC_stim.csv,ReadVersion_Recog.csv,"Read Recog",Read3,THING,STUFF,BUFFER2,Buffer,55,53,Study,User,-,,Study/JOL,BUFFER2,,776,,,-1,-1,,,,1
56d684fffc7879000c77d87f,60i32eua98,"Mediated Recog Prolific",1,55,2023-05-08T21:04:08+00:00,1.0372219085693,5,versionC_stim.csv,ReadVersion_Recog.csv,"Read Recog",Read3,MALT,CHOCOLATE,BUFFER2,Buffer,53,55,Study,User,-,,Study/JOL,BUFFER2,,789,,,-1,-1,,,,1
56d684fffc7879000c77d87f,60i32eua98,"Mediated Recog Prolific",1,56,2023-05-08T21:04:12+00:00,4.7570989131927,5,versionC_stim.csv,ReadVersion_Recog.csv,"Read Recog",Read3,GEESE,GOOSE,BUFFER2,Buffer,51,54,Study,User,-,,Study/JOL,BUFFER2,,4519,,,-1,-1,,,,1
56d684fffc7879000c77d87f,60i32eua98,"Mediated Recog Prolific",1,57,2023-05-08T21:04:13+00:00,0.97152709960938,5,versionC_stim.csv,ReadVersion_Recog.csv,"Read Recog",Read3,MOON,SPACE,BUFFER2,Buffer,54,52,Study,User,-,,Study/JOL,BUFFER2,,697,,,-1,-1,,,,1
56d684fffc7879000c77d87f,60i32eua98,"Mediated Recog Prolific",1,58,2023-05-08T21:04:16+00:00,2.0657839775085,5,versionC_stim.csv,ReadVersion_Recog.csv,"Read Recog",Read3,,,,,,0,Instruct,User,-,"You have completed this section. Please press Enter.",Filler_Instruction,Instruct2,,1665,,,-1,-1,,,,1
56d684fffc7879000c77d87f,60i32eua98,"Mediated Recog Prolific",1,59,2023-05-08T21:06:16+00:00,120.51018309593,5,versionC_stim.csv,ReadVersion_Recog.csv,"Read Recog",Read3,,,,,,0,FreeRecall,120,120,"Please list the 50 US states in alphabetical order. The task will automatically advance to the next screen after two minutes.",,Filler1,,120035,"Alabama, Alaska, Arizona, Arkansas, California, Colorado, Connecticut, Delaware, Florida, Georgia, Hawaii, Idaho, illinois, Indiana, Iowa, Kansas, Kentucky, Louisiana, Maine, Mary",0,35404,119892,0,0,,0.956
56d684fffc7879000c77d87f,60i32eua98,"Mediated Recog Prolific",1,60,2023-05-08T21:07:01+00:00,44.908836841583,5,versionC_stim.csv,ReadVersion_Recog.csv,"Read Recog",Read3,,,,,,0,Instruct,User,10,"Your memory will now be tested. You will be presented with a series of words that may or may not have been previously presented alongside another word. If the word on the screen was previously studied, please select YES. If the word was not studied, select NO. PLEASE DO NOT SKIP ITEMS! Click next when you are ready to begin.",,Instruc7982154d,,44400,,,-1,-1,,,,0.563
56d684fffc7879000c77d87f,60i32eua98,"Mediated Recog Prolific",1,61,2023-05-08T21:07:10+00:00,8.8614680767059,5,versionC_stim.csv,ReadVersion_Recog.csv,"Read Recog",Read3,,HAIR,RECOG,Presented,115,107,Likert,User,1,"Was this item previously studied?",PRESENTED,Recog,1::2,8449,YES,0,-1,-1,0,0,,1
56d684fffc7879000c77d87f,60i32eua98,"Mediated Recog Prolific",1,62,2023-05-08T21:07:14+00:00,4.1644940376282,5,versionC_stim.csv,ReadVersion_Recog.csv,"Read Recog",Read3,,CLUTTER,RECOG,CONTROL,92,73,Likert,User,1,"Was this item previously studied?",CONTROL,Recog,1::2,2394,NO,0,-1,-1,0,0,,1
56d684fffc7879000c77d87f,60i32eua98,"Mediated Recog Prolific",1,63,2023-05-08T21:07:17+00:00,3.125195980072,5,versionC_stim.csv,ReadVersion_Recog.csv,"Read Recog",Read3,,STOP,RECOG,CONTROL,58,126,Likert,User,1,"Was this item previously studied?",PRESENTED,Recog,1::2,2730,NO,33.333333333333,-1,-1,0,0,,1
56d684fffc7879000c77d87f,60i32eua98,"Mediated Recog Prolific",1,64,2023-05-08T21:07:19+00:00,1.9399540424347,5,versionC_stim.csv,ReadVersion_Recog.csv,"Read Recog",Read3,,WHEEL,RECOG,Presented,110,120,Likert,User,1,"Was this item previously studied?",PRESENTED,Recog,1::2,1695,NO,0,-1,-1,0,0,,1
56d684fffc7879000c77d87f,60i32eua98,"Mediated Recog Prolific",1,65,2023-05-08T21:07:21+00:00,1.8037819862366,5,versionC_stim.csv,ReadVersion_Recog.csv,"Read Recog",Read3,,BRONZE,RECOG,CONTROL,99,112,Likert,User,1,"Was this item previously studied?",PRESENTED,Recog,1::2,1422,NO,25,-1,-1,0,0,,1
56d684fffc7879000c77d87f,60i32eua98,"Mediated Recog Prolific",1,66,2023-05-08T21:07:23+00:00,2.1033670902252,5,versionC_stim.csv,ReadVersion_Recog.csv,"Read Recog",Read3,,HAMMER,RECOG,CONTROL,74,121,Likert,User,1,"Was this item previously studied?",PRESENTED,Recog,1::2,1850,NO,0,-1,-1,0,0,,1
56d684fffc7879000c77d87f,60i32eua98,"Mediated Recog Prolific",1,67,2023-05-08T21:07:25+00:00,2.3349189758301,5,versionC_stim.csv,ReadVersion_Recog.csv,"Read Recog",Read3,,MORNING,RECOG,Presented,144,144,Likert,User,1,"Was this item previously studied?",PRESENTED,Recog,1::2,2071,YES,0,-1,-1,0,0,,1
56d684fffc7879000c77d87f,60i32eua98,"Mediated Recog Prolific",1,68,2023-05-08T21:07:27+00:00,1.8088798522949,5,versionC_stim.csv,ReadVersion_Recog.csv,"Read Recog",Read3,,PIE,RECOG,Presented,105,122,Likert,User,1,"Was this item previously studied?",PRESENTED,Recog,1::2,1434,YES,33.333333333333,-1,-1,0,0,,1
56d684fffc7879000c77d87f,60i32eua98,"Mediated Recog Prolific",1,69,2023-05-08T21:07:30+00:00,3.0835690498352,5,versionC_stim.csv,ReadVersion_Recog.csv,"Read Recog",Read3,,CLEAN,RECOG,Presented,124,132,Likert,User,1,"Was this item previously studied?",PRESENTED,Recog,1::2,2847,YES,25,-1,-1,0,0,,1
56d684fffc7879000c77d87f,60i32eua98,"Mediated Recog Prolific",1,70,2023-05-08T21:07:32+00:00,2.0878200531006,5,versionC_stim.csv,ReadVersion_Recog.csv,"Read Recog",Read3,,BUG,RECOG,CONTROL,85,74,Likert,User,1,"Was this item previously studied?",CONTROL,Recog,1::2,1723,NO,0,-1,-1,0,0,,1
56d684fffc7879000c77d87f,60i32eua98,"Mediated Recog Prolific",1,71,2023-05-08T21:07:34+00:00,1.8554639816284,5,versionC_stim.csv,ReadVersion_Recog.csv,"Read Recog",Read3,,MAROON,RECOG,Presented,132,79,Likert,User,1,"Was this item previously studied?",CONTROL,Recog,1::2,1612,YES,0,-1,-1,0,0,,1
56d684fffc7879000c77d87f,60i32eua98,"Mediated Recog Prolific",1,72,2023-05-08T21:07:36+00:00,1.8558700084686,5,versionC_stim.csv,ReadVersion_Recog.csv,"Read Recog",Read3,,DONKEY,RECOG,Presented,126,77,Likert,User,1,"Was this item previously studied?",CONTROL,Recog,1::2,1451,YES,22.222222222222,-1,-1,0,0,,1
56d684fffc7879000c77d87f,60i32eua98,"Mediated Recog Prolific",1,73,2023-05-08T21:07:39+00:00,2.9272909164429,5,versionC_stim.csv,ReadVersion_Recog.csv,"Read Recog",Read3,,FIRE,RECOG,CONTROL,77,137,Likert,User,1,"Was this item previously studied?",PRESENTED,Recog,1::2,2684,NO,0,-1,-1,0,0,,1
56d684fffc7879000c77d87f,60i32eua98,"Mediated Recog Prolific",1,74,2023-05-08T21:07:41+00:00,2.1280150413513,5,versionC_stim.csv,ReadVersion_Recog.csv,"Read Recog",Read3,,FLOWER,RECOG,Presented,130,140,Likert,User,1,"Was this item previously studied?",PRESENTED,Recog,1::2,1902,NO,25,-1,-1,0,0,,1
56d684fffc7879000c77d87f,60i32eua98,"Mediated Recog Prolific",1,75,2023-05-08T21:07:43+00:00,1.9814350605011,5,versionC_stim.csv,ReadVersion_Recog.csv,"Read Recog",Read3,,BASKET,RECOG,CONTROL,67,141,Likert,User,1,"Was this item previously studied?",PRESENTED,Recog,1::2,1587,NO,0,-1,-1,0,0,,1
56d684fffc7879000c77d87f,60i32eua98,"Mediated Recog Prolific",1,76,2023-05-08T21:07:45+00:00,1.9729330539703,5,versionC_stim.csv,ReadVersion_Recog.csv,"Read Recog",Read3,,STEAK,RECOG,Presented,134,89,Likert,User,1,"Was this item previously studied?",CONTROL,Recog,1::2,1727,NO,0,-1,-1,0,0,,1
56d684fffc7879000c77d87f,60i32eua98,"Mediated Recog Prolific",1,77,2023-05-08T21:07:47+00:00,2.2428967952728,5,versionC_stim.csv,ReadVersion_Recog.csv,"Read Recog",Read3,,KEYS,RECOG,Presented,137,75,Likert,User,1,"Was this item previously studied?",CONTROL,Recog,1::2,1836,YES,57.142857142857,-1,-1,0,0,,1
56d684fffc7879000c77d87f,60i32eua98,"Mediated Recog Prolific",1,78,2023-05-08T21:07:50+00:00,2.8546741008759,5,versionC_stim.csv,ReadVersion_Recog.csv,"Read Recog",Read3,,TOIL,RECOG,CONTROL,97,86,Likert,User,1,"Was this item previously studied?",CONTROL,Recog,1::2,2588,NO,33.333333333333,-1,-1,0,0,,1
56d684fffc7879000c77d87f,60i32eua98,"Mediated Recog Prolific",1,79,2023-05-08T21:07:52+00:00,1.9446439743042,5,versionC_stim.csv,ReadVersion_Recog.csv,"Read Recog",Read3,,SNOW,RECOG,CONTROL,57,88,Likert,User,1,"Was this item previously studied?",CONTROL,Recog,1::2,1692,NO,66.666666666667,-1,-1,0,0,,1
56d684fffc7879000c77d87f,60i32eua98,"Mediated Recog Prolific",1,80,2023-05-08T21:07:54+00:00,2.1439120769501,5,versionC_stim.csv,ReadVersion_Recog.csv,"Read Recog",Read3,,BOUNCE,RECOG,Presented,108,103,Likert,User,1,"Was this item previously studied?",PRESENTED,Recog,1::2,1713,NO,25,-1,-1,0,0,,1
56d684fffc7879000c77d87f,60i32eua98,"Mediated Recog Prolific",1,81,2023-05-08T21:07:56+00:00,2.229220867157,5,versionC_stim.csv,ReadVersion_Recog.csv,"Read Recog",Read3,,WOLF,RECOG,CONTROL,89,102,Likert,User,1,"Was this item previously studied?",PRESENTED,Recog,1::2,1978,NO,33.333333333333,-1,-1,0,0,,1
56d684fffc7879000c77d87f,60i32eua98,"Mediated Recog Prolific",1,82,2023-05-08T21:07:58+00:00,2.0485320091248,5,versionC_stim.csv,ReadVersion_Recog.csv,"Read Recog",Read3,,BANG,RECOG,Presented,146,138,Likert,User,1,"Was this item previously studied?",PRESENTED,Recog,1::2,1804,YES,0,-1,-1,0,0,,1
56d684fffc7879000c77d87f,60i32eua98,"Mediated Recog Prolific",1,83,2023-05-08T21:08:01+00:00,2.9454770088196,5,versionC_stim.csv,ReadVersion_Recog.csv,"Read Recog",Read3,,STRIPES,RECOG,Presented,102,136,Likert,User,1,"Was this item previously studied?",PRESENTED,Recog,1::2,2400,NO,0,-1,-1,0,0,,1
56d684fffc7879000c77d87f,60i32eua98,"Mediated Recog Prolific",1,84,2023-05-08T21:08:07+00:00,5.3166980743408,5,versionC_stim.csv,ReadVersion_Recog.csv,"Read Recog",Read3,,ACCIDENT,RECOG,CONTROL,90,85,Likert,User,1,"Was this item previously studied?",CONTROL,Recog,1::2,4934,NO,20,-1,-1,0,0,,1
56d684fffc7879000c77d87f,60i32eua98,"Mediated Recog Prolific",1,85,2023-05-08T21:08:09+00:00,2.1969549655914,5,versionC_stim.csv,ReadVersion_Recog.csv,"Read Recog",Read3,,ISLAND,RECOG,CONTROL,60,142,Likert,User,1,"Was this item previously studied?",PRESENTED,Recog,1::2,1831,NO,25,-1,-1,0,0,,1
56d684fffc7879000c77d87f,60i32eua98,"Mediated Recog Prolific",1,86,2023-05-08T21:08:17+00:00,8.0567569732666,5,versionC_stim.csv,ReadVersion_Recog.csv,"Read Recog",Read3,,SLEEP,RECOG,Presented,125,95,Likert,User,1,"Was this item previously studied?",CONTROL,Recog,1::2,7559,YES,25,-1,-1,0,0,,1
56d684fffc7879000c77d87f,60i32eua98,"Mediated Recog Prolific",1,87,2023-05-08T21:08:19+00:00,2.005921125412,5,versionC_stim.csv,ReadVersion_Recog.csv,"Read Recog",Read3,,COLLAR,RECOG,CONTROL,59,87,Likert,User,1,"Was this item previously studied?",CONTROL,Recog,1::2,1754,NO,25,-1,-1,0,0,,1
56d684fffc7879000c77d87f,60i32eua98,"Mediated Recog Prolific",1,88,2023-05-08T21:08:21+00:00,1.8447468280792,5,versionC_stim.csv,ReadVersion_Recog.csv,"Read Recog",Read3,,WATER,RECOG,CONTROL,86,125,Likert,User,1,"Was this item previously studied?",PRESENTED,Recog,1::2,1465,NO,0,-1,-1,0,0,,1
56d684fffc7879000c77d87f,60i32eua98,"Mediated Recog Prolific",1,89,2023-05-08T21:08:23+00:00,2.4401681423187,5,versionC_stim.csv,ReadVersion_Recog.csv,"Read Recog",Read3,,PAPER,RECOG,CONTROL,78,60,Likert,User,1,"Was this item previously studied?",CONTROL,Recog,1::2,2190,NO,0,-1,-1,0,0,,1
56d684fffc7879000c77d87f,60i32eua98,"Mediated Recog Prolific",1,90,2023-05-08T21:08:26+00:00,2.396271944046,5,versionC_stim.csv,ReadVersion_Recog.csv,"Read Recog",Read3,,DRINK,RECOG,Presented,128,110,Likert,User,1,"Was this item previously studied?",PRESENTED,Recog,1::2,1996,NO,28.571428571429,-1,-1,0,0,,1
56d684fffc7879000c77d87f,60i32eua98,"Mediated Recog Prolific",1,91,2023-05-08T21:08:28+00:00,2.0538930892944,5,versionC_stim.csv,ReadVersion_Recog.csv,"Read Recog",Read3,,CLOTH,RECOG,Presented,133,114,Likert,User,1,"Was this item previously studied?",PRESENTED,Recog,1::2,1802,YES,0,-1,-1,0,0,,1
56d684fffc7879000c77d87f,60i32eua98,"Mediated Recog Prolific",1,92,2023-05-08T21:08:30+00:00,1.8517878055573,5,versionC_stim.csv,ReadVersion_Recog.csv,"Read Recog",Read3,,FINGER,RECOG,Presented,113,57,Likert,User,1,"Was this item previously studied?",CONTROL,Recog,1::2,1599,YES,22.222222222222,-1,-1,0,0,,1
56d684fffc7879000c77d87f,60i32eua98,"Mediated Recog Prolific",1,93,2023-05-08T21:08:31+00:00,1.7596371173859,5,versionC_stim.csv,ReadVersion_Recog.csv,"Read Recog",Read3,,PLANT,RECOG,CONTROL,72,143,Likert,User,1,"Was this item previously studied?",PRESENTED,Recog,1::2,1384,YES,0,-1,-1,0,0,,1
56d684fffc7879000c77d87f,60i32eua98,"Mediated Recog Prolific",1,94,2023-05-08T21:08:35+00:00,3.2602980136871,5,versionC_stim.csv,ReadVersion_Recog.csv,"Read Recog",Read3,,ELECTION,RECOG,Presented,135,101,Likert,User,1,"Was this item previously studied?",CONTROL,Recog,1::2,3008,YES,18.181818181818,-1,-1,0,0,,1
56d684fffc7879000c77d87f,60i32eua98,"Mediated Recog Prolific",1,95,2023-05-08T21:08:38+00:00,3.3197989463806,5,versionC_stim.csv,ReadVersion_Recog.csv,"Read Recog",Read3,,LOVE,RECOG,Presented,127,80,Likert,User,1,"Was this item previously studied?",CONTROL,Recog,1::2,3051,NO,33.333333333333,-1,-1,0,0,,1
56d684fffc7879000c77d87f,60i32eua98,"Mediated Recog Prolific",1,96,2023-05-08T21:08:40+00:00,1.991133928299,5,versionC_stim.csv,ReadVersion_Recog.csv,"Read Recog",Read3,,BASEBALL,RECOG,CONTROL,80,106,Likert,User,1,"Was this item previously studied?",PRESENTED,Recog,1::2,1602,NO,0,-1,-1,0,0,,1
56d684fffc7879000c77d87f,60i32eua98,"Mediated Recog Prolific",1,97,2023-05-08T21:08:42+00:00,2.5501880645752,5,versionC_stim.csv,ReadVersion_Recog.csv,"Read Recog",Read3,,DRINK,RECOG,CONTROL,63,113,Likert,User,1,"Was this item previously studied?",PRESENTED,Recog,1::2,2288,NO,28.571428571429,-1,-1,0,0,,1
56d684fffc7879000c77d87f,60i32eua98,"Mediated Recog Prolific",1,98,2023-05-08T21:08:45+00:00,2.7869839668274,5,versionC_stim.csv,ReadVersion_Recog.csv,"Read Recog",Read3,,BELT,RECOG,Presented,142,81,Likert,User,1,"Was this item previously studied?",CONTROL,Recog,1::2,2356,NO,0,-1,-1,0,0,,1
56d684fffc7879000c77d87f,60i32eua98,"Mediated Recog Prolific",1,99,2023-05-08T21:08:47+00:00,1.7670910358429,5,versionC_stim.csv,ReadVersion_Recog.csv,"Read Recog",Read3,,COW,RECOG,CONTROL,84,76,Likert,User,1,"Was this item previously studied?",CONTROL,Recog,1::2,1539,NO,40,-1,-1,0,0,,1
56d684fffc7879000c77d87f,60i32eua98,"Mediated Recog Prolific",1,100,2023-05-08T21:08:49+00:00,2.1774230003357,5,versionC_stim.csv,ReadVersion_Recog.csv,"Read Recog",Read3,,CAR,RECOG,CONTROL,88,109,Likert,User,1,"Was this item previously studied?",PRESENTED,Recog,1::2,1786,NO,0,-1,-1,0,0,,1
56d684fffc7879000c77d87f,60i32eua98,"Mediated Recog Prolific",1,101,2023-05-08T21:08:51+00:00,1.9512920379639,5,versionC_stim.csv,ReadVersion_Recog.csv,"Read Recog",Read3,,TICK,RECOG,Presented,143,72,Likert,User,1,"Was this item previously studied?",CONTROL,Recog,1::2,1704,YES,0,-1,-1,0,0,,1
56d684fffc7879000c77d87f,60i32eua98,"Mediated Recog Prolific",1,102,2023-05-08T21:08:55+00:00,3.6038661003113,5,versionC_stim.csv,ReadVersion_Recog.csv,"Read Recog",Read3,,CARPET,RECOG,Presented,111,62,Likert,User,1,"Was this item previously studied?",CONTROL,Recog,1::2,3380,NO,0,-1,-1,0,0,,1
56d684fffc7879000c77d87f,60i32eua98,"Mediated Recog Prolific",1,103,2023-05-08T21:08:57+00:00,1.8351738452911,5,versionC_stim.csv,ReadVersion_Recog.csv,"Read Recog",Read3,,TRASH,RECOG,Presented,117,99,Likert,User,1,"Was this item previously studied?",CONTROL,Recog,1::2,1455,YES,25,-1,-1,0,0,,1
56d684fffc7879000c77d87f,60i32eua98,"Mediated Recog Prolific",1,104,2023-05-08T21:08:59+00:00,2.7723319530487,5,versionC_stim.csv,ReadVersion_Recog.csv,"Read Recog",Read3,,DARK,RECOG,Presented,114,115,Likert,User,1,"Was this item previously studied?",PRESENTED,Recog,1::2,2530,NO,0,-1,-1,0,0,,1
56d684fffc7879000c77d87f,60i32eua98,"Mediated Recog Prolific",1,105,2023-05-08T21:09:01+00:00,2.1424660682678,5,versionC_stim.csv,ReadVersion_Recog.csv,"Read Recog",Read3,,VASE,RECOG,CONTROL,87,59,Likert,User,1,"Was this item previously studied?",CONTROL,Recog,1::2,1753,NO,0,-1,-1,0,0,,1
56d684fffc7879000c77d87f,60i32eua98,"Mediated Recog Prolific",1,106,2023-05-08T21:09:03+00:00,1.5769331455231,5,versionC_stim.csv,ReadVersion_Recog.csv,"Read Recog",Read3,,DANCE,RECOG,Presented,109,129,Likert,User,1,"Was this item previously studied?",PRESENTED,Recog,1::2,1332,NO,28.571428571429,-1,-1,0,0,,1
56d684fffc7879000c77d87f,60i32eua98,"Mediated Recog Prolific",1,107,2023-05-08T21:09:08+00:00,5.1599309444427,5,versionC_stim.csv,ReadVersion_Recog.csv,"Read Recog",Read3,,FEATHER,RECOG,CONTROL,64,97,Likert,User,1,"Was this item previously studied?",CONTROL,Recog,1::2,3958,NO,0,-1,-1,0,0,,1
56d684fffc7879000c77d87f,60i32eua98,"Mediated Recog Prolific",1,108,2023-05-08T21:09:10+00:00,2.185763835907,5,versionC_stim.csv,ReadVersion_Recog.csv,"Read Recog",Read3,,THIGH,RECOG,CONTROL,68,91,Likert,User,1,"Was this item previously studied?",CONTROL,Recog,1::2,1794,NO,0,-1,-1,0,0,,1
56d684fffc7879000c77d87f,60i32eua98,"Mediated Recog Prolific",1,109,2023-05-08T21:09:12+00:00,1.9640049934387,5,versionC_stim.csv,ReadVersion_Recog.csv,"Read Recog",Read3,,RED,RECOG,CONTROL,76,119,Likert,User,1,"Was this item previously studied?",PRESENTED,Recog,1::2,1696,NO,0,-1,-1,0,0,,1
56d684fffc7879000c77d87f,60i32eua98,"Mediated Recog Prolific",1,110,2023-05-08T21:09:14+00:00,1.8872082233429,5,versionC_stim.csv,ReadVersion_Recog.csv,"Read Recog",Read3,,MONEY,RECOG,Presented,118,70,Likert,User,1,"Was this item previously studied?",CONTROL,Recog,1::2,1627,YES,25,-1,-1,0,0,,1
56d684fffc7879000c77d87f,60i32eua98,"Mediated Recog Prolific",1,111,2023-05-08T21:09:17+00:00,3.1143119335175,5,versionC_stim.csv,ReadVersion_Recog.csv,"Read Recog",Read3,,FISH,RECOG,Presented,131,66,Likert,User,1,"Was this item previously studied?",CONTROL,Recog,1::2,2721,NO,0,-1,-1,0,0,,1
56d684fffc7879000c77d87f,60i32eua98,"Mediated Recog Prolific",1,112,2023-05-08T21:09:20+00:00,2.230740070343,5,versionC_stim.csv,ReadVersion_Recog.csv,"Read Recog",Read3,,SYRUP,RECOG,Presented,107,84,Likert,User,1,"Was this item previously studied?",CONTROL,Recog,1::2,1974,YES,25,-1,-1,0,0,,1
56d684fffc7879000c77d87f,60i32eua98,"Mediated Recog Prolific",1,113,2023-05-08T21:09:22+00:00,2.4031398296356,5,versionC_stim.csv,ReadVersion_Recog.csv,"Read Recog",Read3,,SMELL,RECOG,CONTROL,79,94,Likert,User,1,"Was this item previously studied?",CONTROL,Recog,1::2,2026,NO,0,-1,-1,0,0,,1
56d684fffc7879000c77d87f,60i32eua98,"Mediated Recog Prolific",1,114,2023-05-08T21:09:24+00:00,1.7847440242767,5,versionC_stim.csv,ReadVersion_Recog.csv,"Read Recog",Read3,,SILK,RECOG,Presented,106,67,Likert,User,1,"Was this item previously studied?",CONTROL,Recog,1::2,1529,YES,28.571428571429,-1,-1,0,0,,1
56d684fffc7879000c77d87f,60i32eua98,"Mediated Recog Prolific",1,115,2023-05-08T21:09:26+00:00,1.8369679450989,5,versionC_stim.csv,ReadVersion_Recog.csv,"Read Recog",Read3,,STING,RECOG,CONTROL,81,98,Likert,User,1,"Was this item previously studied?",CONTROL,Recog,1::2,1455,NO,28.571428571429,-1,-1,0,0,,1
56d684fffc7879000c77d87f,60i32eua98,"Mediated Recog Prolific",1,116,2023-05-08T21:09:27+00:00,1.6354401111603,5,versionC_stim.csv,ReadVersion_Recog.csv,"Read Recog",Read3,,COLD,RECOG,CONTROL,83,96,Likert,User,1,"Was this item previously studied?",CONTROL,Recog,1::2,1387,,,-1,-1,,,,1
56d684fffc7879000c77d87f,60i32eua98,"Mediated Recog Prolific",1,117,2023-05-08T21:09:31+00:00,3.8359730243683,5,versionC_stim.csv,ReadVersion_Recog.csv,"Read Recog",Read3,,CAVE,RECOG,CONTROL,66,68,Likert,User,1,"Was this item previously studied?",CONTROL,Recog,1::2,3352,NO,0,-1,-1,0,0,,1
56d684fffc7879000c77d87f,60i32eua98,"Mediated Recog Prolific",1,118,2023-05-08T21:09:33+00:00,1.8578538894653,5,versionC_stim.csv,ReadVersion_Recog.csv,"Read Recog",Read3,,CLOTHES,RECOG,CONTROL,75,83,Likert,User,1,"Was this item previously studied?",CONTROL,Recog,1::2,1585,YES,40,-1,-1,0,0,,1
56d684fffc7879000c77d87f,60i32eua98,"Mediated Recog Prolific",1,119,2023-05-08T21:09:36+00:00,3.1980991363525,5,versionC_stim.csv,ReadVersion_Recog.csv,"Read Recog",Read3,,BIRD,RECOG,Presented,122,69,Likert,User,1,"Was this item previously studied?",CONTROL,Recog,1::2,2775,NO,0,-1,-1,0,0,,1
56d684fffc7879000c77d87f,60i32eua98,"Mediated Recog Prolific",1,120,2023-05-08T21:09:40+00:00,3.8946340084076,5,versionC_stim.csv,ReadVersion_Recog.csv,"Read Recog",Read3,,SMELL,RECOG,CONTROL,61,145,Likert,User,1,"Was this item previously studied?",PRESENTED,Recog,1::2,3644,NO,0,-1,-1,0,0,,1
56d684fffc7879000c77d87f,60i32eua98,"Mediated Recog Prolific",1,121,2023-05-08T21:09:42+00:00,2.1785039901733,5,versionC_stim.csv,ReadVersion_Recog.csv,"Read Recog",Read3,,SACK,RECOG,CONTROL,93,104,Likert,User,1,"Was this item previously studied?",PRESENTED,Recog,1::2,1775,NO,0,-1,-1,0,0,,1
56d684fffc7879000c77d87f,60i32eua98,"Mediated Recog Prolific",1,122,2023-05-08T21:09:44+00:00,1.9901390075684,5,versionC_stim.csv,ReadVersion_Recog.csv,"Read Recog",Read3,,HORN,RECOG,CONTROL,94,111,Likert,User,1,"Was this item previously studied?",PRESENTED,Recog,1::2,1584,NO,33.333333333333,-1,-1,0,0,,1
56d684fffc7879000c77d87f,60i32eua98,"Mediated Recog Prolific",1,123,2023-05-08T21:09:46+00:00,1.9759509563446,5,versionC_stim.csv,ReadVersion_Recog.csv,"Read Recog",Read3,,CARD,RECOG,Presented,129,131,Likert,User,1,"Was this item previously studied?",PRESENTED,Recog,1::2,1717,YES,0,-1,-1,0,0,,1
56d684fffc7879000c77d87f,60i32eua98,"Mediated Recog Prolific",1,124,2023-05-08T21:09:49+00:00,2.7054710388184,5,versionC_stim.csv,ReadVersion_Recog.csv,"Read Recog",Read3,,BOTTLE,RECOG,Presented,112,117,Likert,User,1,"Was this item previously studied?",PRESENTED,Recog,1::2,2455,NO,25,-1,-1,0,0,,1
56d684fffc7879000c77d87f,60i32eua98,"Mediated Recog Prolific",1,125,2023-05-08T21:09:54+00:00,4.9897010326385,5,versionC_stim.csv,ReadVersion_Recog.csv,"Read Recog",Read3,,SHAKE,RECOG,Presented,139,65,Likert,User,1,"Was this item previously studied?",CONTROL,Recog,1::2,4735,NO,0,-1,-1,0,0,,1
56d684fffc7879000c77d87f,60i32eua98,"Mediated Recog Prolific",1,126,2023-05-08T21:09:57+00:00,2.7867639064789,5,versionC_stim.csv,ReadVersion_Recog.csv,"Read Recog",Read3,,CHARM,RECOG,Presented,136,116,Likert,User,1,"Was this item previously studied?",PRESENTED,Recog,1::2,1658,NO,0,-1,-1,0,0,,1
56d684fffc7879000c77d87f,60i32eua98,"Mediated Recog Prolific",1,127,2023-05-08T21:09:59+00:00,2.2758979797363,5,versionC_stim.csv,ReadVersion_Recog.csv,"Read Recog",Read3,,QUIET,RECOG,Presented,104,93,Likert,User,1,"Was this item previously studied?",CONTROL,Recog,1::2,2021,YES,25,-1,-1,0,0,,1
56d684fffc7879000c77d87f,60i32eua98,"Mediated Recog Prolific",1,128,2023-05-08T21:10:01+00:00,1.8935739994049,5,versionC_stim.csv,ReadVersion_Recog.csv,"Read Recog",Read3,,BOX,RECOG,Presented,103,128,Likert,User,1,"Was this item previously studied?",PRESENTED,Recog,1::2,1644,YES,0,-1,-1,0,0,,1
56d684fffc7879000c77d87f,60i32eua98,"Mediated Recog Prolific",1,129,2023-05-08T21:10:04+00:00,2.8261680603027,5,versionC_stim.csv,ReadVersion_Recog.csv,"Read Recog",Read3,,LAWYER,RECOG,CONTROL,62,139,Likert,User,1,"Was this item previously studied?",PRESENTED,Recog,1::2,2564,NO,0,-1,-1,0,0,,1
56d684fffc7879000c77d87f,60i32eua98,"Mediated Recog Prolific",1,130,2023-05-08T21:10:05+00:00,1.7782368659973,5,versionC_stim.csv,ReadVersion_Recog.csv,"Read Recog",Read3,,PLANT,RECOG,Presented,121,134,Likert,User,1,"Was this item previously studied?",PRESENTED,Recog,1::2,1506,YES,0,-1,-1,0,0,,1
56d684fffc7879000c77d87f,60i32eua98,"Mediated Recog Prolific",1,131,2023-05-08T21:10:08+00:00,2.6115550994873,5,versionC_stim.csv,ReadVersion_Recog.csv,"Read Recog",Read3,,FICTION,RECOG,Presented,140,130,Likert,User,1,"Was this item previously studied?",PRESENTED,Recog,1::2,2348,NO,22.222222222222,-1,-1,0,0,,1
56d684fffc7879000c77d87f,60i32eua98,"Mediated Recog Prolific",1,132,2023-05-08T21:10:14+00:00,5.8264989852905,5,versionC_stim.csv,ReadVersion_Recog.csv,"Read Recog",Read3,,HAND,RECOG,Presented,145,100,Likert,User,1,"Was this item previously studied?",CONTROL,Recog,1::2,5435,NO,33.333333333333,-1,-1,0,0,,1
56d684fffc7879000c77d87f,60i32eua98,"Mediated Recog Prolific",1,133,2023-05-08T21:10:16+00:00,1.9439671039581,5,versionC_stim.csv,ReadVersion_Recog.csv,"Read Recog",Read3,,CUT,RECOG,CONTROL,73,82,Likert,User,1,"Was this item previously studied?",CONTROL,Recog,1::2,1690,NO,0,-1,-1,0,0,,1
56d684fffc7879000c77d87f,60i32eua98,"Mediated Recog Prolific",1,134,2023-05-08T21:10:18+00:00,2.4296917915344,5,versionC_stim.csv,ReadVersion_Recog.csv,"Read Recog",Read3,,BUSINESS,RECOG,CONTROL,95,58,Likert,User,1,"Was this item previously studied?",CONTROL,Recog,1::2,2179,NO,20,-1,-1,0,0,,1
56d684fffc7879000c77d87f,60i32eua98,"Mediated Recog Prolific",1,135,2023-05-08T21:10:20+00:00,2.1647670269012,5,versionC_stim.csv,ReadVersion_Recog.csv,"Read Recog",Read3,,HEAD,RECOG,Presented,119,133,Likert,User,1,"Was this item previously studied?",PRESENTED,Recog,1::2,1896,NO,0,-1,-1,0,0,,1
56d684fffc7879000c77d87f,60i32eua98,"Mediated Recog Prolific",1,136,2023-05-08T21:10:23+00:00,2.4347190856934,5,versionC_stim.csv,ReadVersion_Recog.csv,"Read Recog",Read3,,RIDDLE,RECOG,CONTROL,91,63,Likert,User,1,"Was this item previously studied?",CONTROL,Recog,1::2,2185,NO,0,-1,-1,0,0,,1
56d684fffc7879000c77d87f,60i32eua98,"Mediated Recog Prolific",1,137,2023-05-08T21:10:26+00:00,3.3741030693054,5,versionC_stim.csv,ReadVersion_Recog.csv,"Read Recog",Read3,,DONKEY,RECOG,Presented,120,135,Likert,User,1,"Was this item previously studied?",PRESENTED,Recog,1::2,3127,NO,25,-1,-1,0,0,,1
56d684fffc7879000c77d87f,60i32eua98,"Mediated Recog Prolific",1,138,2023-05-08T21:10:28+00:00,1.8592369556427,5,versionC_stim.csv,ReadVersion_Recog.csv,"Read Recog",Read3,,PEAK,RECOG,CONTROL,69,71,Likert,User,1,"Was this item previously studied?",CONTROL,Recog,1::2,1602,NO,0,-1,-1,0,0,,1
56d684fffc7879000c77d87f,60i32eua98,"Mediated Recog Prolific",1,139,2023-05-08T21:10:30+00:00,2.1982810497284,5,versionC_stim.csv,ReadVersion_Recog.csv,"Read Recog",Read3,,ROD,RECOG,Presented,141,90,Likert,User,1,"Was this item previously studied?",CONTROL,Recog,1::2,1953,YES,0,-1,-1,0,0,,1
56d684fffc7879000c77d87f,60i32eua98,"Mediated Recog Prolific",1,140,2023-05-08T21:10:32+00:00,1.5674588680267,5,versionC_stim.csv,ReadVersion_Recog.csv,"Read Recog",Read3,,MUSCLE,RECOG,CONTROL,71,64,Likert,User,1,"Was this item previously studied?",CONTROL,Recog,1::2,1337,NO,0,-1,-1,0,0,,1
56d684fffc7879000c77d87f,60i32eua98,"Mediated Recog Prolific",1,141,2023-05-08T21:10:34+00:00,1.6821780204773,5,versionC_stim.csv,ReadVersion_Recog.csv,"Read Recog",Read3,,COTTON,RECOG,Presented,116,118,Likert,User,1,"Was this item previously studied?",PRESENTED,Recog,1::2,1433,NO,25,-1,-1,0,0,,1
56d684fffc7879000c77d87f,60i32eua98,"Mediated Recog Prolific",1,142,2023-05-08T21:10:35+00:00,1.7024600505829,5,versionC_stim.csv,ReadVersion_Recog.csv,"Read Recog",Read3,,SEED,RECOG,CONTROL,65,105,Likert,User,1,"Was this item previously studied?",PRESENTED,Recog,1::2,1463,NO,0,-1,-1,0,0,,1
56d684fffc7879000c77d87f,60i32eua98,"Mediated Recog Prolific",1,143,2023-05-08T21:10:37+00:00,1.4677078723907,5,versionC_stim.csv,ReadVersion_Recog.csv,"Read Recog",Read3,,FIGHT,RECOG,CONTROL,82,61,Likert,User,1,"Was this item previously studied?",CONTROL,Recog,1::2,1214,NO,0,-1,-1,0,0,,1
56d684fffc7879000c77d87f,60i32eua98,"Mediated Recog Prolific",1,144,2023-05-08T21:10:39+00:00,2.1613759994507,5,versionC_stim.csv,ReadVersion_Recog.csv,"Read Recog",Read3,,LEG,RECOG,CONTROL,101,123,Likert,User,1,"Was this item previously studied?",PRESENTED,Recog,1::2,1453,NO,0,-1,-1,0,0,,1
56d684fffc7879000c77d87f,60i32eua98,"Mediated Recog Prolific",1,145,2023-05-08T21:10:41+00:00,2.0605590343475,5,versionC_stim.csv,ReadVersion_Recog.csv,"Read Recog",Read3,,KNOB,RECOG,CONTROL,70,127,Likert,User,1,"Was this item previously studied?",PRESENTED,Recog,1::2,1669,NO,66.666666666667,-1,-1,0,0,,1
56d684fffc7879000c77d87f,60i32eua98,"Mediated Recog Prolific",1,146,2023-05-08T21:10:43+00:00,1.6389181613922,5,versionC_stim.csv,ReadVersion_Recog.csv,"Read Recog",Read3,,HIDE,RECOG,CONTROL,96,78,Likert,User,1,"Was this item previously studied?",CONTROL,Recog,1::2,1370,NO,0,-1,-1,0,0,,1
56d684fffc7879000c77d87f,60i32eua98,"Mediated Recog Prolific",1,147,2023-05-08T21:10:44+00:00,1.5621998310089,5,versionC_stim.csv,ReadVersion_Recog.csv,"Read Recog",Read3,,CHILDREN,RECOG,CONTROL,100,92,Likert,User,1,"Was this item previously studied?",CONTROL,Recog,1::2,1306,NO,20,-1,-1,0,0,,1
56d684fffc7879000c77d87f,60i32eua98,"Mediated Recog Prolific",1,148,2023-05-08T21:10:46+00:00,2.0407431125641,5,versionC_stim.csv,ReadVersion_Recog.csv,"Read Recog",Read3,,SENTENCE,RECOG,Presented,123,108,Likert,User,1,"Was this item previously studied?",PRESENTED,Recog,1::2,1778,NO,20,-1,-1,0,0,,1
56d684fffc7879000c77d87f,60i32eua98,"Mediated Recog Prolific",1,149,2023-05-08T21:10:48+00:00,1.9280500411987,5,versionC_stim.csv,ReadVersion_Recog.csv,"Read Recog",Read3,,OUNCE,RECOG,CONTROL,98,124,Likert,User,1,"Was this item previously studied?",PRESENTED,Recog,1::2,1664,NO,28.571428571429,-1,-1,0,0,,1
56d684fffc7879000c77d87f,60i32eua98,"Mediated Recog Prolific",1,150,2023-05-08T21:10:50+00:00,2.0023019313812,5,versionC_stim.csv,ReadVersion_Recog.csv,"Read Recog",Read3,,PHONE,RECOG,Presented,138,146,Likert,User,1,"Was this item previously studied?",PRESENTED,Recog,1::2,1766,NO,28.571428571429,-1,-1,0,0,,1
56d684fffc7879000c77d87f,60i32eua98,"Mediated Recog Prolific",1,151,2023-05-08T21:10:52+00:00,1.6425869464874,5,versionC_stim.csv,ReadVersion_Recog.csv,"Read Recog",Read3,,,,,,0,Instruct,User,-,"You have completed this section. Please press Enter.",,Instruct7,,1414,,,-1,-1,,,,1
56d684fffc7879000c77d87f,60i32eua98,"Mediated Recog Prolific",1,152,2023-05-08T21:10:55+00:00,3.6185410022736,5,versionC_stim.csv,ReadVersion_Recog.csv,"Read Recog",Read3,,,,,,0,Instruct,User,-,"The following screen will ask you a few questions abour your experience today. You must complete these questions to receive credit.",,Instruct8,,3358,,,-1,-1,,,,1
