Username,ID,ExperimentName,Session,Trial,Date,TimeDif,"Condition Number","Stimuli File","Order File","Condition Description","Condition Notes",Stimuli*Cue,Stimuli*Answer,Stimuli*Shuffle,"Stimuli*Stimuli Notes",Stimuli*Value,Procedure*Item,"Procedure*Trial Type","Procedure*Max Time","Procedure*Min Time",Procedure*Text,"Procedure*Procedure Notes",Procedure*Shuffle,Procedure*,Response*RT,Response*Response,Response*Accuracy,Response*RTfirst,Response*RTlast,Response*strictAcc,Response*lenientAcc,Response*focus,Response*Focus
5e96e85aa7f126177e00ea9f,5a5pydf7ma,"Mediated Recog Prolific",1,1,2023-05-08T19:39:04+00:00,7.0688350200653,7,versionD_stim.csv,ReadVersion_Recog.csv,"Read Recog",Read4,,,,,,0,Instruct,-,5,"In this section, you will be presented with a series of word pairs. Please study each word pair! Your memory will be tested!",Initial_Instruct,Instruct1,,6254,,,-1,-1,,,,1
5e96e85aa7f126177e00ea9f,5a5pydf7ma,"Mediated Recog Prolific",1,2,2023-05-08T19:39:08+00:00,3.5449249744415,7,versionD_stim.csv,ReadVersion_Recog.csv,"Read Recog",Read4,,,,,,0,Instruct,User,-,"You will now begin. Press Enter when you are ready to begin.",,Instruct16,,2888,,,-1,-1,,,,1
5e96e85aa7f126177e00ea9f,5a5pydf7ma,"Mediated Recog Prolific",1,3,2023-05-08T19:39:12+00:00,3.9980199337006,7,versionD_stim.csv,ReadVersion_Recog.csv,"Read Recog",Read4,OCTOBER,SPOOKY,BUFFER3,Buffer,5,5,Study,User,-,,Study/JOL,BUFFER,,3360,,,-1,-1,,,,1
5e96e85aa7f126177e00ea9f,5a5pydf7ma,"Mediated Recog Prolific",1,4,2023-05-08T19:39:16+00:00,3.933324098587,7,versionD_stim.csv,ReadVersion_Recog.csv,"Read Recog",Read4,DAYS,WEAKS,BUFFER3,Buffer,1,6,Study,User,-,,Study/JOL,BUFFER,,3400,,,-1,-1,,,,1
5e96e85aa7f126177e00ea9f,5a5pydf7ma,"Mediated Recog Prolific",1,5,2023-05-08T19:39:20+00:00,4.4858660697937,7,versionD_stim.csv,ReadVersion_Recog.csv,"Read Recog",Read4,MONTH,YEAR,BUFFER3,Buffer,2,4,Study,User,-,,Study/JOL,BUFFER,,3404,,,-1,-1,,,,1
5e96e85aa7f126177e00ea9f,5a5pydf7ma,"Mediated Recog Prolific",1,6,2023-05-08T19:39:24+00:00,3.8024837970734,7,versionD_stim.csv,ReadVersion_Recog.csv,"Read Recog",Read4,SPRING,MARCH,BUFFER3,Buffer,4,2,Study,User,-,,Study/JOL,BUFFER,,2834,,,-1,-1,,,,1
5e96e85aa7f126177e00ea9f,5a5pydf7ma,"Mediated Recog Prolific",1,7,2023-05-08T19:39:28+00:00,3.548070192337,7,versionD_stim.csv,ReadVersion_Recog.csv,"Read Recog",Read4,TOOL,SHED,BUFFER3,Buffer,3,3,Study,User,-,,Study/JOL,BUFFER,,2996,,,-1,-1,,,,1
5e96e85aa7f126177e00ea9f,5a5pydf7ma,"Mediated Recog Prolific",1,8,2023-05-08T19:39:31+00:00,3.6019229888916,7,versionD_stim.csv,ReadVersion_Recog.csv,"Read Recog",Read4,REALITY,ISLAND,Study2,M,9,39,Study,User,-,,Study/JOL,"Study Phase",,3074,,,-1,-1,,,,1
5e96e85aa7f126177e00ea9f,5a5pydf7ma,"Mediated Recog Prolific",1,9,2023-05-08T19:39:35+00:00,3.3029408454895,7,versionD_stim.csv,ReadVersion_Recog.csv,"Read Recog",Read4,HAPPY,CAR,Study2,U,37,49,Study,User,-,,Study/JOL,"Study Phase",,2744,,,-1,-1,,,,1
5e96e85aa7f126177e00ea9f,5a5pydf7ma,"Mediated Recog Prolific",1,10,2023-05-08T19:39:37+00:00,2.6640751361847,7,versionD_stim.csv,ReadVersion_Recog.csv,"Read Recog",Read4,DOCUMENT,PAPER,Study2,F,27,14,Study,User,-,,Study/JOL,"Study Phase",,2091,,,-1,-1,,,,1
5e96e85aa7f126177e00ea9f,5a5pydf7ma,"Mediated Recog Prolific",1,11,2023-05-08T19:39:40+00:00,3.1313638687134,7,versionD_stim.csv,ReadVersion_Recog.csv,"Read Recog",Read4,CHISEL,HAMMER,Study2,F,23,28,Study,User,-,,Study/JOL,"Study Phase",,2548,,,-1,-1,,,,1
5e96e85aa7f126177e00ea9f,5a5pydf7ma,"Mediated Recog Prolific",1,12,2023-05-08T19:39:43+00:00,2.8495700359344,7,versionD_stim.csv,ReadVersion_Recog.csv,"Read Recog",Read4,CHOP,CUT,Study2,F,22,22,Study,User,-,,Study/JOL,"Study Phase",,2257,,,-1,-1,,,,1
5e96e85aa7f126177e00ea9f,5a5pydf7ma,"Mediated Recog Prolific",1,13,2023-05-08T19:39:46+00:00,2.4806070327759,7,versionD_stim.csv,ReadVersion_Recog.csv,"Read Recog",Read4,KING,VASE,Study2,U,36,42,Study,User,-,,Study/JOL,"Study Phase",,1937,,,-1,-1,,,,1
5e96e85aa7f126177e00ea9f,5a5pydf7ma,"Mediated Recog Prolific",1,14,2023-05-08T19:39:48+00:00,2.6768000125885,7,versionD_stim.csv,ReadVersion_Recog.csv,"Read Recog",Read4,SOAP,DRINK,Study2,M,12,48,Study,User,-,,Study/JOL,"Study Phase",,2107,,,-1,-1,,,,1
5e96e85aa7f126177e00ea9f,5a5pydf7ma,"Mediated Recog Prolific",1,15,2023-05-08T19:39:51+00:00,2.6323900222778,7,versionD_stim.csv,ReadVersion_Recog.csv,"Read Recog",Read4,BENCH,HORN,Study2,U,43,18,Study,User,-,,Study/JOL,"Study Phase",,2086,,,-1,-1,,,,1
5e96e85aa7f126177e00ea9f,5a5pydf7ma,"Mediated Recog Prolific",1,16,2023-05-08T19:39:54+00:00,2.5147819519043,7,versionD_stim.csv,ReadVersion_Recog.csv,"Read Recog",Read4,WASP,BUG,Study2,F,34,26,Study,User,-,,Study/JOL,"Study Phase",,1932,,,-1,-1,,,,1
5e96e85aa7f126177e00ea9f,5a5pydf7ma,"Mediated Recog Prolific",1,17,2023-05-08T19:39:56+00:00,2.6495161056519,7,versionD_stim.csv,ReadVersion_Recog.csv,"Read Recog",Read4,LEAGUE,BASEBALL,Study2,F,29,13,Study,User,-,,Study/JOL,"Study Phase",,2097,,,-1,-1,,,,1
5e96e85aa7f126177e00ea9f,5a5pydf7ma,"Mediated Recog Prolific",1,18,2023-05-08T19:39:59+00:00,2.3430659770966,7,versionD_stim.csv,ReadVersion_Recog.csv,"Read Recog",Read4,RAKE,SEED,Study2,M,14,11,Study,User,-,,Study/JOL,"Study Phase",,1747,,,-1,-1,,,,1
5e96e85aa7f126177e00ea9f,5a5pydf7ma,"Mediated Recog Prolific",1,19,2023-05-08T19:40:01+00:00,2.2793679237366,7,versionD_stim.csv,ReadVersion_Recog.csv,"Read Recog",Read4,HORNET,STING,Study2,F,30,24,Study,User,-,,Study/JOL,"Study Phase",,1724,,,-1,-1,,,,1
5e96e85aa7f126177e00ea9f,5a5pydf7ma,"Mediated Recog Prolific",1,20,2023-05-08T19:40:03+00:00,2.3217630386353,7,versionD_stim.csv,ReadVersion_Recog.csv,"Read Recog",Read4,TRAP,CAVE,Study2,M,15,7,Study,User,-,,Study/JOL,"Study Phase",,1611,,,-1,-1,,,,1
5e96e85aa7f126177e00ea9f,5a5pydf7ma,"Mediated Recog Prolific",1,21,2023-05-08T19:40:05+00:00,2.3435568809509,7,versionD_stim.csv,ReadVersion_Recog.csv,"Read Recog",Read4,ATTIRE,CLOTHES,Study2,F,24,27,Study,User,-,,Study/JOL,"Study Phase",,1697,,,-1,-1,,,,1
5e96e85aa7f126177e00ea9f,5a5pydf7ma,"Mediated Recog Prolific",1,22,2023-05-08T19:40:09+00:00,3.6780290603638,7,versionD_stim.csv,ReadVersion_Recog.csv,"Read Recog",Read4,ARTERY,BRONZE,Study2,U,48,20,Study,User,-,,Study/JOL,"Study Phase",,2457,,,-1,-1,,,,1
5e96e85aa7f126177e00ea9f,5a5pydf7ma,"Mediated Recog Prolific",1,23,2023-05-08T19:40:12+00:00,3.3031570911407,7,versionD_stim.csv,ReadVersion_Recog.csv,"Read Recog",Read4,HEAVY,FEATHER,Study2,M,13,32,Study,User,-,,Study/JOL,"Study Phase",,2360,,,-1,-1,,,,1
5e96e85aa7f126177e00ea9f,5a5pydf7ma,"Mediated Recog Prolific",1,24,2023-05-08T19:40:16+00:00,3.2173478603363,7,versionD_stim.csv,ReadVersion_Recog.csv,"Read Recog",Read4,ART,WOLF,Study2,U,38,34,Study,User,-,,Study/JOL,"Study Phase",,2348,,,-1,-1,,,,1
5e96e85aa7f126177e00ea9f,5a5pydf7ma,"Mediated Recog Prolific",1,25,2023-05-08T19:40:19+00:00,3.1505610942841,7,versionD_stim.csv,ReadVersion_Recog.csv,"Read Recog",Read4,CASH,LEG,Study2,U,50,10,Study,User,-,,Study/JOL,"Study Phase",,2489,,,-1,-1,,,,1
5e96e85aa7f126177e00ea9f,5a5pydf7ma,"Mediated Recog Prolific",1,26,2023-05-08T19:40:22+00:00,3.1623299121857,7,versionD_stim.csv,ReadVersion_Recog.csv,"Read Recog",Read4,SICK,HIDE,Study2,U,45,41,Study,User,-,,Study/JOL,"Study Phase",,2594,,,-1,-1,,,,1
5e96e85aa7f126177e00ea9f,5a5pydf7ma,"Mediated Recog Prolific",1,27,2023-05-08T19:40:25+00:00,2.7639470100403,7,versionD_stim.csv,ReadVersion_Recog.csv,"Read Recog",Read4,BRIDGE,WATER,Study2,F,35,29,Study,User,-,,Study/JOL,"Study Phase",,2176,,,-1,-1,,,,1
5e96e85aa7f126177e00ea9f,5a5pydf7ma,"Mediated Recog Prolific",1,28,2023-05-08T19:40:28+00:00,2.7834911346436,7,versionD_stim.csv,ReadVersion_Recog.csv,"Read Recog",Read4,SUGAR,RIDDLE,Study2,U,40,31,Study,User,-,,Study/JOL,"Study Phase",,2212,,,-1,-1,,,,1
5e96e85aa7f126177e00ea9f,5a5pydf7ma,"Mediated Recog Prolific",1,29,2023-05-08T19:40:31+00:00,3.3522629737854,7,versionD_stim.csv,ReadVersion_Recog.csv,"Read Recog",Read4,NURSE,LAWYER,Study2,M,11,30,Study,User,-,,Study/JOL,"Study Phase",,2216,,,-1,-1,,,,1
5e96e85aa7f126177e00ea9f,5a5pydf7ma,"Mediated Recog Prolific",1,30,2023-05-08T19:40:34+00:00,2.6486120223999,7,versionD_stim.csv,ReadVersion_Recog.csv,"Read Recog",Read4,HERD,COW,Study2,F,33,19,Study,User,-,,Study/JOL,"Study Phase",,2056,,,-1,-1,,,,1
5e96e85aa7f126177e00ea9f,5a5pydf7ma,"Mediated Recog Prolific",1,31,2023-05-08T19:40:36+00:00,2.6104187965393,7,versionD_stim.csv,ReadVersion_Recog.csv,"Read Recog",Read4,LEASE,TOIL,Study2,U,46,21,Study,User,-,,Study/JOL,"Study Phase",,1833,,,-1,-1,,,,1
5e96e85aa7f126177e00ea9f,5a5pydf7ma,"Mediated Recog Prolific",1,32,2023-05-08T19:40:38+00:00,2.3294939994812,7,versionD_stim.csv,ReadVersion_Recog.csv,"Read Recog",Read4,CHILL,COLD,Study2,F,32,36,Study,User,-,,Study/JOL,"Study Phase",,1722,,,-1,-1,,,,1
5e96e85aa7f126177e00ea9f,5a5pydf7ma,"Mediated Recog Prolific",1,33,2023-05-08T19:40:40+00:00,1.9668290615082,7,versionD_stim.csv,ReadVersion_Recog.csv,"Read Recog",Read4,WINDOW,KNOB,Study2,M,19,33,Study,User,-,,Study/JOL,"Study Phase",,1408,,,-1,-1,,,,1
5e96e85aa7f126177e00ea9f,5a5pydf7ma,"Mediated Recog Prolific",1,34,2023-05-08T19:40:43+00:00,2.3574030399323,7,versionD_stim.csv,ReadVersion_Recog.csv,"Read Recog",Read4,STRONG,ACCIDENT,Study2,U,39,40,Study,User,-,,Study/JOL,"Study Phase",,1768,,,-1,-1,,,,1
5e96e85aa7f126177e00ea9f,5a5pydf7ma,"Mediated Recog Prolific",1,35,2023-05-08T19:40:45+00:00,2.3052039146423,7,versionD_stim.csv,ReadVersion_Recog.csv,"Read Recog",Read4,FEUD,FIGHT,Study2,F,31,50,Study,User,-,,Study/JOL,"Study Phase",,1722,,,-1,-1,,,,1
5e96e85aa7f126177e00ea9f,5a5pydf7ma,"Mediated Recog Prolific",1,36,2023-05-08T19:40:48+00:00,2.4856011867523,7,versionD_stim.csv,ReadVersion_Recog.csv,"Read Recog",Read4,PUSH,CLUTTER,Study2,U,41,38,Study,User,-,,Study/JOL,"Study Phase",,1811,,,-1,-1,,,,1
5e96e85aa7f126177e00ea9f,5a5pydf7ma,"Mediated Recog Prolific",1,37,2023-05-08T19:40:51+00:00,2.9742929935455,7,versionD_stim.csv,ReadVersion_Recog.csv,"Read Recog",Read4,OVEN,BASKET,Study2,M,16,17,Study,User,-,,Study/JOL,"Study Phase",,1844,,,-1,-1,,,,1
5e96e85aa7f126177e00ea9f,5a5pydf7ma,"Mediated Recog Prolific",1,38,2023-05-08T19:40:53+00:00,2.4580059051514,7,versionD_stim.csv,ReadVersion_Recog.csv,"Read Recog",Read4,RAZOR,MUSCLE,Study2,M,20,15,Study,User,-,,Study/JOL,"Study Phase",,1801,,,-1,-1,,,,1
5e96e85aa7f126177e00ea9f,5a5pydf7ma,"Mediated Recog Prolific",1,39,2023-05-08T19:40:56+00:00,2.5013420581818,7,versionD_stim.csv,ReadVersion_Recog.csv,"Read Recog",Read4,EYES,SMELL,Study2,M,10,8,Study,User,-,,Study/JOL,"Study Phase",,1897,,,-1,-1,,,,1
5e96e85aa7f126177e00ea9f,5a5pydf7ma,"Mediated Recog Prolific",1,40,2023-05-08T19:41:02+00:00,6.1747610569,7,versionD_stim.csv,ReadVersion_Recog.csv,"Read Recog",Read4,SCHOOL,STOP,Study2,M,7,25,Study,User,-,,Study/JOL,"Study Phase",,4299,,,-1,-1,,,,1
5e96e85aa7f126177e00ea9f,5a5pydf7ma,"Mediated Recog Prolific",1,41,2023-05-08T19:41:05+00:00,3.2047770023346,7,versionD_stim.csv,ReadVersion_Recog.csv,"Read Recog",Read4,BOTH,OUNCE,Study2,U,47,16,Study,User,-,,Study/JOL,"Study Phase",,2583,,,-1,-1,,,,0.846
5e96e85aa7f126177e00ea9f,5a5pydf7ma,"Mediated Recog Prolific",1,42,2023-05-08T19:41:07+00:00,2.4962627887726,7,versionD_stim.csv,ReadVersion_Recog.csv,"Read Recog",Read4,DIETARY,SACK,Study2,U,42,37,Study,User,-,,Study/JOL,"Study Phase",,1931,,,-1,-1,,,,1
5e96e85aa7f126177e00ea9f,5a5pydf7ma,"Mediated Recog Prolific",1,43,2023-05-08T19:41:10+00:00,2.2398450374603,7,versionD_stim.csv,ReadVersion_Recog.csv,"Read Recog",Read4,GRILL,THIGH,Study2,M,17,35,Study,User,-,,Study/JOL,"Study Phase",,1676,,,-1,-1,,,,1
5e96e85aa7f126177e00ea9f,5a5pydf7ma,"Mediated Recog Prolific",1,44,2023-05-08T19:41:12+00:00,2.2638130187988,7,versionD_stim.csv,ReadVersion_Recog.csv,"Read Recog",Read4,SUMMER,SNOW,Study2,M,6,23,Study,User,-,,Study/JOL,"Study Phase",,1663,,,-1,-1,,,,1
5e96e85aa7f126177e00ea9f,5a5pydf7ma,"Mediated Recog Prolific",1,45,2023-05-08T19:41:14+00:00,2.2293310165405,7,versionD_stim.csv,ReadVersion_Recog.csv,"Read Recog",Read4,BLAZE,FIRE,Study2,F,26,47,Study,User,-,,Study/JOL,"Study Phase",,1659,,,-1,-1,,,,1
5e96e85aa7f126177e00ea9f,5a5pydf7ma,"Mediated Recog Prolific",1,46,2023-05-08T19:41:16+00:00,2.2686550617218,7,versionD_stim.csv,ReadVersion_Recog.csv,"Read Recog",Read4,CACTUS,PLANT,Study2,F,21,12,Study,User,-,,Study/JOL,"Study Phase",,1725,,,-1,-1,,,,1
5e96e85aa7f126177e00ea9f,5a5pydf7ma,"Mediated Recog Prolific",1,47,2023-05-08T19:41:19+00:00,2.8095870018005,7,versionD_stim.csv,ReadVersion_Recog.csv,"Read Recog",Read4,MIRROR,CHILDREN,Study2,U,49,45,Study,User,-,,Study/JOL,"Study Phase",,1630,,,-1,-1,,,,1
5e96e85aa7f126177e00ea9f,5a5pydf7ma,"Mediated Recog Prolific",1,48,2023-05-08T19:41:21+00:00,2.1764850616455,7,versionD_stim.csv,ReadVersion_Recog.csv,"Read Recog",Read4,VALLEY,PEAK,Study2,M,18,43,Study,User,-,,Study/JOL,"Study Phase",,1610,,,-1,-1,,,,1
5e96e85aa7f126177e00ea9f,5a5pydf7ma,"Mediated Recog Prolific",1,49,2023-05-08T19:41:24+00:00,2.2361528873444,7,versionD_stim.csv,ReadVersion_Recog.csv,"Read Recog",Read4,PANTS,COLLAR,Study2,M,8,9,Study,User,-,,Study/JOL,"Study Phase",,1660,,,-1,-1,,,,1
5e96e85aa7f126177e00ea9f,5a5pydf7ma,"Mediated Recog Prolific",1,50,2023-05-08T19:41:26+00:00,2.023992061615,7,versionD_stim.csv,ReadVersion_Recog.csv,"Read Recog",Read4,CHERRY,RED,Study2,F,25,44,Study,User,-,,Study/JOL,"Study Phase",,1416,,,-1,-1,,,,1
5e96e85aa7f126177e00ea9f,5a5pydf7ma,"Mediated Recog Prolific",1,51,2023-05-08T19:41:27+00:00,1.7914528846741,7,versionD_stim.csv,ReadVersion_Recog.csv,"Read Recog",Read4,DEATH,BUSINESS,Study2,U,44,51,Study,User,-,,Study/JOL,"Study Phase",,1234,,,-1,-1,,,,1
5e96e85aa7f126177e00ea9f,5a5pydf7ma,"Mediated Recog Prolific",1,52,2023-05-08T19:41:30+00:00,2.3827719688416,7,versionD_stim.csv,ReadVersion_Recog.csv,"Read Recog",Read4,INCENSE,SMELL,Study2,F,28,46,Study,User,-,,Study/JOL,"Study Phase",,1678,,,-1,-1,,,,1
5e96e85aa7f126177e00ea9f,5a5pydf7ma,"Mediated Recog Prolific",1,53,2023-05-08T19:41:32+00:00,1.9378271102905,7,versionD_stim.csv,ReadVersion_Recog.csv,"Read Recog",Read4,NOODLE,STRING,BUFFER4,Buffer,52,55,Study,User,-,,Study/JOL,BUFFER2,,1380,,,-1,-1,,,,1
5e96e85aa7f126177e00ea9f,5a5pydf7ma,"Mediated Recog Prolific",1,54,2023-05-08T19:41:34+00:00,2.0701971054077,7,versionD_stim.csv,ReadVersion_Recog.csv,"Read Recog",Read4,SHRIMP,FISH,BUFFER4,Buffer,53,56,Study,User,-,,Study/JOL,BUFFER2,,1460,,,-1,-1,,,,1
5e96e85aa7f126177e00ea9f,5a5pydf7ma,"Mediated Recog Prolific",1,55,2023-05-08T19:41:36+00:00,1.7995297908783,7,versionD_stim.csv,ReadVersion_Recog.csv,"Read Recog",Read4,CAMP,ADVENTURE,BUFFER4,Buffer,55,53,Study,User,-,,Study/JOL,BUFFER2,,1252,,,-1,-1,,,,1
5e96e85aa7f126177e00ea9f,5a5pydf7ma,"Mediated Recog Prolific",1,56,2023-05-08T19:41:38+00:00,2.1181011199951,7,versionD_stim.csv,ReadVersion_Recog.csv,"Read Recog",Read4,CARROT,POTATO,BUFFER4,Buffer,51,52,Study,User,-,,Study/JOL,BUFFER2,,1571,,,-1,-1,,,,1
5e96e85aa7f126177e00ea9f,5a5pydf7ma,"Mediated Recog Prolific",1,57,2023-05-08T19:41:40+00:00,1.9973590373993,7,versionD_stim.csv,ReadVersion_Recog.csv,"Read Recog",Read4,ICE,FROZEN,BUFFER4,Buffer,54,54,Study,User,-,,Study/JOL,BUFFER2,,1456,,,-1,-1,,,,1
5e96e85aa7f126177e00ea9f,5a5pydf7ma,"Mediated Recog Prolific",1,58,2023-05-08T19:41:42+00:00,2.2192690372467,7,versionD_stim.csv,ReadVersion_Recog.csv,"Read Recog",Read4,,,,,,0,Instruct,User,-,"You have completed this section. Please press Enter.",Filler_Instruction,Instruct2,,1664,,,-1,-1,,,,1
5e96e85aa7f126177e00ea9f,5a5pydf7ma,"Mediated Recog Prolific",1,59,2023-05-08T19:43:45+00:00,123.0871989727,7,versionD_stim.csv,ReadVersion_Recog.csv,"Read Recog",Read4,,,,,,0,FreeRecall,120,120,"Please list the 50 US states in alphabetical order. The task will automatically advance to the next screen after two minutes.",,Filler1,,120086,"Alabama Arkansas California Colorado Idaho Kansas Massachusets Mississipi Nebraska Nevada New England New Jersey New York Ph Texas Virginia Washington West Virginia",0,5925,120060,0,0,,1
5e96e85aa7f126177e00ea9f,5a5pydf7ma,"Mediated Recog Prolific",1,60,2023-05-08T19:44:06+00:00,21.082224845886,7,versionD_stim.csv,ReadVersion_Recog.csv,"Read Recog",Read4,,,,,,0,Instruct,User,10,"Your memory will now be tested. You will be presented with a series of words that may or may not have been previously presented alongside another word. If the word on the screen was previously studied, please select YES. If the word was not studied, select NO. PLEASE DO NOT SKIP ITEMS! Click next when you are ready to begin.",,Instruc7982154d,,14679,,,-1,-1,,,,1
5e96e85aa7f126177e00ea9f,5a5pydf7ma,"Mediated Recog Prolific",1,61,2023-05-08T19:44:13+00:00,6.7205371856689,7,versionD_stim.csv,ReadVersion_Recog.csv,"Read Recog",Read4,,TICK,RECOG,Control,102,82,Likert,User,1,"Was this item previously studied?",CONTROL,Recog,1::2,5842,NO,0,-1,-1,0,0,,1
5e96e85aa7f126177e00ea9f,5a5pydf7ma,"Mediated Recog Prolific",1,62,2023-05-08T19:44:20+00:00,6.6934239864349,7,versionD_stim.csv,ReadVersion_Recog.csv,"Read Recog",Read4,,BOX,RECOG,Control,62,69,Likert,User,1,"Was this item previously studied?",CONTROL,Recog,1::2,5787,NO,40,-1,-1,0,0,,1
5e96e85aa7f126177e00ea9f,5a5pydf7ma,"Mediated Recog Prolific",1,63,2023-05-08T19:44:25+00:00,5.6533658504486,7,versionD_stim.csv,ReadVersion_Recog.csv,"Read Recog",Read4,,WHEEL,RECOG,Control,69,104,Likert,User,1,"Was this item previously studied?",PRESENTED,Recog,1::2,4779,YES,25,-1,-1,0,0,,1
5e96e85aa7f126177e00ea9f,5a5pydf7ma,"Mediated Recog Prolific",1,64,2023-05-08T19:44:29+00:00,3.4702889919281,7,versionD_stim.csv,ReadVersion_Recog.csv,"Read Recog",Read4,,TRASH,RECOG,Control,76,67,Likert,User,1,"Was this item previously studied?",CONTROL,Recog,1::2,2889,NO,0,-1,-1,0,0,,1
5e96e85aa7f126177e00ea9f,5a5pydf7ma,"Mediated Recog Prolific",1,65,2023-05-08T19:44:32+00:00,3.4387691020966,7,versionD_stim.csv,ReadVersion_Recog.csv,"Read Recog",Read4,,KEYS,RECOG,Control,96,84,Likert,User,1,"Was this item previously studied?",CONTROL,Recog,1::2,2889,YES,57.142857142857,-1,-1,0,0,,1
5e96e85aa7f126177e00ea9f,5a5pydf7ma,"Mediated Recog Prolific",1,66,2023-05-08T19:44:35+00:00,3.2090709209442,7,versionD_stim.csv,ReadVersion_Recog.csv,"Read Recog",Read4,,BUSINESS,RECOG,Presented,144,115,Likert,User,1,"Was this item previously studied?",PRESENTED,Recog,1::2,2666,YES,36.363636363636,-1,-1,0,0,,1
5e96e85aa7f126177e00ea9f,5a5pydf7ma,"Mediated Recog Prolific",1,67,2023-05-08T19:44:40+00:00,4.208160161972,7,versionD_stim.csv,ReadVersion_Recog.csv,"Read Recog",Read4,,WOLF,RECOG,Presented,138,97,Likert,User,1,"Was this item previously studied?",CONTROL,Recog,1::2,3623,YES,0,-1,-1,0,0,,1
5e96e85aa7f126177e00ea9f,5a5pydf7ma,"Mediated Recog Prolific",1,68,2023-05-08T19:44:43+00:00,3.4610478878021,7,versionD_stim.csv,ReadVersion_Recog.csv,"Read Recog",Read4,,CARD,RECOG,Control,88,76,Likert,User,1,"Was this item previously studied?",CONTROL,Recog,1::2,2888,NO,0,-1,-1,0,0,,1
5e96e85aa7f126177e00ea9f,5a5pydf7ma,"Mediated Recog Prolific",1,69,2023-05-08T19:44:46+00:00,3.1154990196228,7,versionD_stim.csv,ReadVersion_Recog.csv,"Read Recog",Read4,,SACK,RECOG,Presented,142,132,Likert,User,1,"Was this item previously studied?",PRESENTED,Recog,1::2,2535,YES,28.571428571429,-1,-1,0,0,,1
5e96e85aa7f126177e00ea9f,5a5pydf7ma,"Mediated Recog Prolific",1,70,2023-05-08T19:44:51+00:00,5.080502986908,7,versionD_stim.csv,ReadVersion_Recog.csv,"Read Recog",Read4,,OUNCE,RECOG,Presented,147,86,Likert,User,1,"Was this item previously studied?",CONTROL,Recog,1::2,4506,YES,25,-1,-1,0,0,,1
5e96e85aa7f126177e00ea9f,5a5pydf7ma,"Mediated Recog Prolific",1,71,2023-05-08T19:44:54+00:00,2.9815120697021,7,versionD_stim.csv,ReadVersion_Recog.csv,"Read Recog",Read4,,FIRE,RECOG,Presented,126,122,Likert,User,1,"Was this item previously studied?",PRESENTED,Recog,1::2,2416,YES,28.571428571429,-1,-1,0,0,,1
5e96e85aa7f126177e00ea9f,5a5pydf7ma,"Mediated Recog Prolific",1,72,2023-05-08T19:44:57+00:00,2.9995338916779,7,versionD_stim.csv,ReadVersion_Recog.csv,"Read Recog",Read4,,STEAK,RECOG,Control,93,140,Likert,User,1,"Was this item previously studied?",PRESENTED,Recog,1::2,2457,YES,25,-1,-1,0,0,,1
5e96e85aa7f126177e00ea9f,5a5pydf7ma,"Mediated Recog Prolific",1,73,2023-05-08T19:45:00+00:00,3.0002949237823,7,versionD_stim.csv,ReadVersion_Recog.csv,"Read Recog",Read4,,BRONZE,RECOG,Presented,148,65,Likert,User,1,"Was this item previously studied?",CONTROL,Recog,1::2,2445,YES,22.222222222222,-1,-1,0,0,,1
5e96e85aa7f126177e00ea9f,5a5pydf7ma,"Mediated Recog Prolific",1,74,2023-05-08T19:45:03+00:00,3.0508460998535,7,versionD_stim.csv,ReadVersion_Recog.csv,"Read Recog",Read4,,BASKET,RECOG,Presented,116,137,Likert,User,1,"Was this item previously studied?",PRESENTED,Recog,1::2,2480,YES,22.222222222222,-1,-1,0,0,,1
5e96e85aa7f126177e00ea9f,5a5pydf7ma,"Mediated Recog Prolific",1,75,2023-05-08T19:45:09+00:00,5.598699092865,7,versionD_stim.csv,ReadVersion_Recog.csv,"Read Recog",Read4,,SNOW,RECOG,Presented,106,78,Likert,User,1,"Was this item previously studied?",CONTROL,Recog,1::2,4617,YES,28.571428571429,-1,-1,0,0,,1
5e96e85aa7f126177e00ea9f,5a5pydf7ma,"Mediated Recog Prolific",1,76,2023-05-08T19:45:13+00:00,3.830983877182,7,versionD_stim.csv,ReadVersion_Recog.csv,"Read Recog",Read4,,BANG,RECOG,Control,105,126,Likert,User,1,"Was this item previously studied?",PRESENTED,Recog,1::2,3286,NO,33.333333333333,-1,-1,0,0,,1
5e96e85aa7f126177e00ea9f,5a5pydf7ma,"Mediated Recog Prolific",1,77,2023-05-08T19:45:16+00:00,3.0788290500641,7,versionD_stim.csv,ReadVersion_Recog.csv,"Read Recog",Read4,,MONEY,RECOG,Control,77,109,Likert,User,1,"Was this item previously studied?",PRESENTED,Recog,1::2,2505,YES,25,-1,-1,0,0,,1
5e96e85aa7f126177e00ea9f,5a5pydf7ma,"Mediated Recog Prolific",1,78,2023-05-08T19:45:20+00:00,4.1110820770264,7,versionD_stim.csv,ReadVersion_Recog.csv,"Read Recog",Read4,,BOUNCE,RECOG,Control,67,111,Likert,User,1,"Was this item previously studied?",PRESENTED,Recog,1::2,3561,YES,22.222222222222,-1,-1,0,0,,1
5e96e85aa7f126177e00ea9f,5a5pydf7ma,"Mediated Recog Prolific",1,79,2023-05-08T19:45:24+00:00,3.9277939796448,7,versionD_stim.csv,ReadVersion_Recog.csv,"Read Recog",Read4,,PIE,RECOG,Control,64,139,Likert,User,1,"Was this item previously studied?",PRESENTED,Recog,1::2,3381,NO,0,-1,-1,0,0,,1
5e96e85aa7f126177e00ea9f,5a5pydf7ma,"Mediated Recog Prolific",1,80,2023-05-08T19:45:27+00:00,3.2402458190918,7,versionD_stim.csv,ReadVersion_Recog.csv,"Read Recog",Read4,,BELT,RECOG,Control,101,145,Likert,User,1,"Was this item previously studied?",PRESENTED,Recog,1::2,2703,NO,0,-1,-1,0,0,,1
5e96e85aa7f126177e00ea9f,5a5pydf7ma,"Mediated Recog Prolific",1,81,2023-05-08T19:45:30+00:00,2.9688251018524,7,versionD_stim.csv,ReadVersion_Recog.csv,"Read Recog",Read4,,VASE,RECOG,Presented,136,143,Likert,User,1,"Was this item previously studied?",PRESENTED,Recog,1::2,2427,YES,28.571428571429,-1,-1,0,0,,1
5e96e85aa7f126177e00ea9f,5a5pydf7ma,"Mediated Recog Prolific",1,82,2023-05-08T19:45:34+00:00,4.0284399986267,7,versionD_stim.csv,ReadVersion_Recog.csv,"Read Recog",Read4,,DARK,RECOG,Control,73,62,Likert,User,1,"Was this item previously studied?",CONTROL,Recog,1::2,3494,NO,0,-1,-1,0,0,,1
5e96e85aa7f126177e00ea9f,5a5pydf7ma,"Mediated Recog Prolific",1,83,2023-05-08T19:45:37+00:00,3.426521062851,7,versionD_stim.csv,ReadVersion_Recog.csv,"Read Recog",Read4,,MAROON,RECOG,Control,91,85,Likert,User,1,"Was this item previously studied?",CONTROL,Recog,1::2,2793,NO,25,-1,-1,0,0,,1
5e96e85aa7f126177e00ea9f,5a5pydf7ma,"Mediated Recog Prolific",1,84,2023-05-08T19:45:41+00:00,3.2068109512329,7,versionD_stim.csv,ReadVersion_Recog.csv,"Read Recog",Read4,,QUIET,RECOG,Control,63,73,Likert,User,1,"Was this item previously studied?",CONTROL,Recog,1::2,2645,YES,25,-1,-1,0,0,,1
5e96e85aa7f126177e00ea9f,5a5pydf7ma,"Mediated Recog Prolific",1,85,2023-05-08T19:45:44+00:00,3.160432100296,7,versionD_stim.csv,ReadVersion_Recog.csv,"Read Recog",Read4,,DONKEY,RECOG,Control,85,129,Likert,User,1,"Was this item previously studied?",PRESENTED,Recog,1::2,2597,NO,25,-1,-1,0,0,,1
5e96e85aa7f126177e00ea9f,5a5pydf7ma,"Mediated Recog Prolific",1,86,2023-05-08T19:45:47+00:00,3.0557618141174,7,versionD_stim.csv,ReadVersion_Recog.csv,"Read Recog",Read4,,HIDE,RECOG,Presented,145,87,Likert,User,1,"Was this item previously studied?",CONTROL,Recog,1::2,2523,YES,28.571428571429,-1,-1,0,0,,1
5e96e85aa7f126177e00ea9f,5a5pydf7ma,"Mediated Recog Prolific",1,87,2023-05-08T19:45:50+00:00,2.7542271614075,7,versionD_stim.csv,ReadVersion_Recog.csv,"Read Recog",Read4,,CLOTHES,RECOG,Presented,124,58,Likert,User,1,"Was this item previously studied?",CONTROL,Recog,1::2,2180,YES,40,-1,-1,0,0,,1
5e96e85aa7f126177e00ea9f,5a5pydf7ma,"Mediated Recog Prolific",1,88,2023-05-08T19:45:53+00:00,3.2818088531494,7,versionD_stim.csv,ReadVersion_Recog.csv,"Read Recog",Read4,,STOP,RECOG,Presented,107,66,Likert,User,1,"Was this item previously studied?",CONTROL,Recog,1::2,2755,YES,28.571428571429,-1,-1,0,0,,1
5e96e85aa7f126177e00ea9f,5a5pydf7ma,"Mediated Recog Prolific",1,89,2023-05-08T19:45:56+00:00,2.8652040958405,7,versionD_stim.csv,ReadVersion_Recog.csv,"Read Recog",Read4,,SLEEP,RECOG,Control,84,136,Likert,User,1,"Was this item previously studied?",PRESENTED,Recog,1::2,2341,YES,25,-1,-1,0,0,,1
5e96e85aa7f126177e00ea9f,5a5pydf7ma,"Mediated Recog Prolific",1,90,2023-05-08T19:46:00+00:00,4.3430550098419,7,versionD_stim.csv,ReadVersion_Recog.csv,"Read Recog",Read4,,HORN,RECOG,Presented,143,63,Likert,User,1,"Was this item previously studied?",CONTROL,Recog,1::2,3784,NO,33.333333333333,-1,-1,0,0,,1
5e96e85aa7f126177e00ea9f,5a5pydf7ma,"Mediated Recog Prolific",1,91,2023-05-08T19:46:03+00:00,2.4880709648132,7,versionD_stim.csv,ReadVersion_Recog.csv,"Read Recog",Read4,,HEAD,RECOG,Control,78,77,Likert,User,1,"Was this item previously studied?",CONTROL,Recog,1::2,1960,YES,28.571428571429,-1,-1,0,0,,1
5e96e85aa7f126177e00ea9f,5a5pydf7ma,"Mediated Recog Prolific",1,92,2023-05-08T19:46:05+00:00,2.6499860286713,7,versionD_stim.csv,ReadVersion_Recog.csv,"Read Recog",Read4,,CLOTH,RECOG,Control,92,108,Likert,User,1,"Was this item previously studied?",PRESENTED,Recog,1::2,2106,YES,0,-1,-1,0,0,,1
5e96e85aa7f126177e00ea9f,5a5pydf7ma,"Mediated Recog Prolific",1,93,2023-05-08T19:46:09+00:00,3.3789269924164,7,versionD_stim.csv,ReadVersion_Recog.csv,"Read Recog",Read4,,HAND,RECOG,Control,104,92,Likert,User,1,"Was this item previously studied?",CONTROL,Recog,1::2,2836,NO,33.333333333333,-1,-1,0,0,,1
5e96e85aa7f126177e00ea9f,5a5pydf7ma,"Mediated Recog Prolific",1,94,2023-05-08T19:46:13+00:00,4.3460659980774,7,versionD_stim.csv,ReadVersion_Recog.csv,"Read Recog",Read4,,HAIR,RECOG,Control,74,101,Likert,User,1,"Was this item previously studied?",CONTROL,Recog,1::2,3786,NO,0,-1,-1,0,0,,1
5e96e85aa7f126177e00ea9f,5a5pydf7ma,"Mediated Recog Prolific",1,95,2023-05-08T19:46:16+00:00,2.7649629116058,7,versionD_stim.csv,ReadVersion_Recog.csv,"Read Recog",Read4,,FLOWER,RECOG,Control,89,106,Likert,User,1,"Was this item previously studied?",PRESENTED,Recog,1::2,2202,YES,22.222222222222,-1,-1,0,0,,1
5e96e85aa7f126177e00ea9f,5a5pydf7ma,"Mediated Recog Prolific",1,96,2023-05-08T19:46:19+00:00,3.2499940395355,7,versionD_stim.csv,ReadVersion_Recog.csv,"Read Recog",Read4,,STRIPES,RECOG,Control,61,135,Likert,User,1,"Was this item previously studied?",PRESENTED,Recog,1::2,2710,NO,0,-1,-1,0,0,,1
5e96e85aa7f126177e00ea9f,5a5pydf7ma,"Mediated Recog Prolific",1,97,2023-05-08T19:46:23+00:00,4.4104819297791,7,versionD_stim.csv,ReadVersion_Recog.csv,"Read Recog",Read4,,LOVE,RECOG,Control,86,100,Likert,User,1,"Was this item previously studied?",CONTROL,Recog,1::2,3822,NO,33.333333333333,-1,-1,0,0,,1
5e96e85aa7f126177e00ea9f,5a5pydf7ma,"Mediated Recog Prolific",1,98,2023-05-08T19:46:26+00:00,2.8038640022278,7,versionD_stim.csv,ReadVersion_Recog.csv,"Read Recog",Read4,,FIGHT,RECOG,Presented,131,144,Likert,User,1,"Was this item previously studied?",PRESENTED,Recog,1::2,2126,YES,0,-1,-1,0,0,,1
5e96e85aa7f126177e00ea9f,5a5pydf7ma,"Mediated Recog Prolific",1,99,2023-05-08T19:46:30+00:00,4.1704471111298,7,versionD_stim.csv,ReadVersion_Recog.csv,"Read Recog",Read4,,CLEAN,RECOG,Control,83,59,Likert,User,1,"Was this item previously studied?",CONTROL,Recog,1::2,3132,NO,28.571428571429,-1,-1,0,0,,1
5e96e85aa7f126177e00ea9f,5a5pydf7ma,"Mediated Recog Prolific",1,100,2023-05-08T19:46:34+00:00,3.177099943161,7,versionD_stim.csv,ReadVersion_Recog.csv,"Read Recog",Read4,,PAPER,RECOG,Presented,127,80,Likert,User,1,"Was this item previously studied?",CONTROL,Recog,1::2,2585,YES,25,-1,-1,0,0,,1
5e96e85aa7f126177e00ea9f,5a5pydf7ma,"Mediated Recog Prolific",1,101,2023-05-08T19:46:37+00:00,3.3272840976715,7,versionD_stim.csv,ReadVersion_Recog.csv,"Read Recog",Read4,,CAVE,RECOG,Presented,115,116,Likert,User,1,"Was this item previously studied?",PRESENTED,Recog,1::2,2751,NO,0,-1,-1,0,0,,1
5e96e85aa7f126177e00ea9f,5a5pydf7ma,"Mediated Recog Prolific",1,102,2023-05-08T19:46:41+00:00,3.7183799743652,7,versionD_stim.csv,ReadVersion_Recog.csv,"Read Recog",Read4,,ACCIDENT,RECOG,Presented,139,124,Likert,User,1,"Was this item previously studied?",PRESENTED,Recog,1::2,3131,NO,20,-1,-1,0,0,,1
5e96e85aa7f126177e00ea9f,5a5pydf7ma,"Mediated Recog Prolific",1,103,2023-05-08T19:46:44+00:00,3.3559670448303,7,versionD_stim.csv,ReadVersion_Recog.csv,"Read Recog",Read4,,HAMMER,RECOG,Presented,123,119,Likert,User,1,"Was this item previously studied?",PRESENTED,Recog,1::2,2788,YES,22.222222222222,-1,-1,0,0,,1
5e96e85aa7f126177e00ea9f,5a5pydf7ma,"Mediated Recog Prolific",1,104,2023-05-08T19:46:47+00:00,3.2297718524933,7,versionD_stim.csv,ReadVersion_Recog.csv,"Read Recog",Read4,,PLANT,RECOG,Control,80,64,Likert,User,1,"Was this item previously studied?",CONTROL,Recog,1::2,2668,YES,0,-1,-1,0,0,,1
5e96e85aa7f126177e00ea9f,5a5pydf7ma,"Mediated Recog Prolific",1,105,2023-05-08T19:46:50+00:00,2.9753761291504,7,versionD_stim.csv,ReadVersion_Recog.csv,"Read Recog",Read4,,MUSCLE,RECOG,Presented,120,91,Likert,User,1,"Was this item previously studied?",CONTROL,Recog,1::2,2436,YES,22.222222222222,-1,-1,0,0,,1
5e96e85aa7f126177e00ea9f,5a5pydf7ma,"Mediated Recog Prolific",1,106,2023-05-08T19:46:53+00:00,2.9437699317932,7,versionD_stim.csv,ReadVersion_Recog.csv,"Read Recog",Read4,,FISH,RECOG,Control,90,133,Likert,User,1,"Was this item previously studied?",PRESENTED,Recog,1::2,2371,YES,28.571428571429,-1,-1,0,0,,1
5e96e85aa7f126177e00ea9f,5a5pydf7ma,"Mediated Recog Prolific",1,107,2023-05-08T19:46:57+00:00,3.5939090251923,7,versionD_stim.csv,ReadVersion_Recog.csv,"Read Recog",Read4,,CARPET,RECOG,Control,70,120,Likert,User,1,"Was this item previously studied?",PRESENTED,Recog,1::2,3043,NO,0,-1,-1,0,0,,1
5e96e85aa7f126177e00ea9f,5a5pydf7ma,"Mediated Recog Prolific",1,108,2023-05-08T19:47:34+00:00,37.268038988113,7,versionD_stim.csv,ReadVersion_Recog.csv,"Read Recog",Read4,,FEATHER,RECOG,Presented,113,112,Likert,User,1,"Was this item previously studied?",PRESENTED,Recog,1::2,36411,NO,0,-1,-1,0,0,,1
5e96e85aa7f126177e00ea9f,5a5pydf7ma,"Mediated Recog Prolific",1,109,2023-05-08T19:47:38+00:00,3.6509759426117,7,versionD_stim.csv,ReadVersion_Recog.csv,"Read Recog",Read4,,PHONE,RECOG,Control,97,71,Likert,User,1,"Was this item previously studied?",CONTROL,Recog,1::2,3021,YES,25,-1,-1,0,0,,1
5e96e85aa7f126177e00ea9f,5a5pydf7ma,"Mediated Recog Prolific",1,110,2023-05-08T19:47:44+00:00,6.5184681415558,7,versionD_stim.csv,ReadVersion_Recog.csv,"Read Recog",Read4,,TOIL,RECOG,Presented,146,72,Likert,User,1,"Was this item previously studied?",CONTROL,Recog,1::2,5654,NO,33.333333333333,-1,-1,0,0,,1
5e96e85aa7f126177e00ea9f,5a5pydf7ma,"Mediated Recog Prolific",1,111,2023-05-08T19:47:47+00:00,2.9703438282013,7,versionD_stim.csv,ReadVersion_Recog.csv,"Read Recog",Read4,,DRINK,RECOG,Presented,112,93,Likert,User,1,"Was this item previously studied?",CONTROL,Recog,1::2,2402,YES,0,-1,-1,0,0,,1
5e96e85aa7f126177e00ea9f,5a5pydf7ma,"Mediated Recog Prolific",1,112,2023-05-08T19:47:52+00:00,4.7229011058807,7,versionD_stim.csv,ReadVersion_Recog.csv,"Read Recog",Read4,,ROD,RECOG,Control,100,89,Likert,User,1,"Was this item previously studied?",CONTROL,Recog,1::2,4152,YES,0,-1,-1,0,0,,1
5e96e85aa7f126177e00ea9f,5a5pydf7ma,"Mediated Recog Prolific",1,113,2023-05-08T19:47:55+00:00,3.5366079807281,7,versionD_stim.csv,ReadVersion_Recog.csv,"Read Recog",Read4,,STING,RECOG,Presented,130,99,Likert,User,1,"Was this item previously studied?",CONTROL,Recog,1::2,2967,YES,25,-1,-1,0,0,,1
5e96e85aa7f126177e00ea9f,5a5pydf7ma,"Mediated Recog Prolific",1,114,2023-05-08T19:47:59+00:00,3.5785710811615,7,versionD_stim.csv,ReadVersion_Recog.csv,"Read Recog",Read4,,CAR,RECOG,Presented,137,102,Likert,User,1,"Was this item previously studied?",PRESENTED,Recog,1::2,3008,YES,0,-1,-1,0,0,,1
5e96e85aa7f126177e00ea9f,5a5pydf7ma,"Mediated Recog Prolific",1,115,2023-05-08T19:48:04+00:00,4.7678809165955,7,versionD_stim.csv,ReadVersion_Recog.csv,"Read Recog",Read4,,BIRD,RECOG,Control,81,113,Likert,User,1,"Was this item previously studied?",PRESENTED,Recog,1::2,4219,YES,0,-1,-1,0,0,,1
5e96e85aa7f126177e00ea9f,5a5pydf7ma,"Mediated Recog Prolific",1,116,2023-05-08T19:48:07+00:00,3.4868121147156,7,versionD_stim.csv,ReadVersion_Recog.csv,"Read Recog",Read4,,THIGH,RECOG,Presented,117,98,Likert,User,1,"Was this item previously studied?",CONTROL,Recog,1::2,2948,YES,0,-1,-1,0,0,,1
5e96e85aa7f126177e00ea9f,5a5pydf7ma,"Mediated Recog Prolific",1,117,2023-05-08T19:48:11+00:00,4.1965367794037,7,versionD_stim.csv,ReadVersion_Recog.csv,"Read Recog",Read4,,SMELL,RECOG,Presented,128,117,Likert,User,1,"Was this item previously studied?",PRESENTED,Recog,1::2,3627,NO,0,-1,-1,0,0,,1
5e96e85aa7f126177e00ea9f,5a5pydf7ma,"Mediated Recog Prolific",1,118,2023-05-08T19:48:17+00:00,5.6922922134399,7,versionD_stim.csv,ReadVersion_Recog.csv,"Read Recog",Read4,,SHAKE,RECOG,Control,98,70,Likert,User,1,"Was this item previously studied?",CONTROL,Recog,1::2,4862,NO,0,-1,-1,0,0,,1
5e96e85aa7f126177e00ea9f,5a5pydf7ma,"Mediated Recog Prolific",1,119,2023-05-08T19:48:21+00:00,3.5238919258118,7,versionD_stim.csv,ReadVersion_Recog.csv,"Read Recog",Read4,,CHILDREN,RECOG,Presented,149,60,Likert,User,1,"Was this item previously studied?",CONTROL,Recog,1::2,2953,YES,18.181818181818,-1,-1,0,0,,1
5e96e85aa7f126177e00ea9f,5a5pydf7ma,"Mediated Recog Prolific",1,120,2023-05-08T19:48:24+00:00,3.1508848667145,7,versionD_stim.csv,ReadVersion_Recog.csv,"Read Recog",Read4,,WATER,RECOG,Presented,135,94,Likert,User,1,"Was this item previously studied?",CONTROL,Recog,1::2,2619,YES,25,-1,-1,0,0,,1
5e96e85aa7f126177e00ea9f,5a5pydf7ma,"Mediated Recog Prolific",1,121,2023-05-08T19:48:27+00:00,3.2145531177521,7,versionD_stim.csv,ReadVersion_Recog.csv,"Read Recog",Read4,,SEED,RECOG,Presented,114,121,Likert,User,1,"Was this item previously studied?",PRESENTED,Recog,1::2,2651,YES,28.571428571429,-1,-1,0,0,,1
5e96e85aa7f126177e00ea9f,5a5pydf7ma,"Mediated Recog Prolific",1,122,2023-05-08T19:48:30+00:00,3.2206530570984,7,versionD_stim.csv,ReadVersion_Recog.csv,"Read Recog",Read4,,CLUTTER,RECOG,Presented,141,131,Likert,User,1,"Was this item previously studied?",PRESENTED,Recog,1::2,2667,NO,0,-1,-1,0,0,,1
5e96e85aa7f126177e00ea9f,5a5pydf7ma,"Mediated Recog Prolific",1,123,2023-05-08T19:48:35+00:00,5.1787238121033,7,versionD_stim.csv,ReadVersion_Recog.csv,"Read Recog",Read4,,SENTENCE,RECOG,Control,82,83,Likert,User,1,"Was this item previously studied?",CONTROL,Recog,1::2,4603,NO,20,-1,-1,0,0,,1
5e96e85aa7f126177e00ea9f,5a5pydf7ma,"Mediated Recog Prolific",1,124,2023-05-08T19:48:39+00:00,4.0385341644287,7,versionD_stim.csv,ReadVersion_Recog.csv,"Read Recog",Read4,,RIDDLE,RECOG,Presented,140,130,Likert,User,1,"Was this item previously studied?",PRESENTED,Recog,1::2,3481,YES,22.222222222222,-1,-1,0,0,,1
5e96e85aa7f126177e00ea9f,5a5pydf7ma,"Mediated Recog Prolific",1,125,2023-05-08T19:48:43+00:00,3.8506000041962,7,versionD_stim.csv,ReadVersion_Recog.csv,"Read Recog",Read4,,ISLAND,RECOG,Presented,109,125,Likert,User,1,"Was this item previously studied?",PRESENTED,Recog,1::2,3256,YES,22.222222222222,-1,-1,0,0,,1
5e96e85aa7f126177e00ea9f,5a5pydf7ma,"Mediated Recog Prolific",1,126,2023-05-08T19:48:51+00:00,7.8066518306732,7,versionD_stim.csv,ReadVersion_Recog.csv,"Read Recog",Read4,,BASEBALL,RECOG,Presented,129,118,Likert,User,1,"Was this item previously studied?",PRESENTED,Recog,1::2,6976,YES,18.181818181818,-1,-1,0,0,,1
5e96e85aa7f126177e00ea9f,5a5pydf7ma,"Mediated Recog Prolific",1,127,2023-05-08T19:48:53+00:00,2.3813090324402,7,versionD_stim.csv,ReadVersion_Recog.csv,"Read Recog",Read4,,LAWYER,RECOG,Presented,111,110,Likert,User,1,"Was this item previously studied?",PRESENTED,Recog,1::2,1798,YES,44.444444444444,-1,-1,0,0,,1
5e96e85aa7f126177e00ea9f,5a5pydf7ma,"Mediated Recog Prolific",1,128,2023-05-08T19:48:57+00:00,3.7767879962921,7,versionD_stim.csv,ReadVersion_Recog.csv,"Read Recog",Read4,,KNOB,RECOG,Presented,119,123,Likert,User,1,"Was this item previously studied?",PRESENTED,Recog,1::2,3219,YES,0,-1,-1,0,0,,1
5e96e85aa7f126177e00ea9f,5a5pydf7ma,"Mediated Recog Prolific",1,129,2023-05-08T19:49:00+00:00,3.0950200557709,7,versionD_stim.csv,ReadVersion_Recog.csv,"Read Recog",Read4,,SILK,RECOG,Control,65,127,Likert,User,1,"Was this item previously studied?",PRESENTED,Recog,1::2,2555,NO,0,-1,-1,0,0,,1
5e96e85aa7f126177e00ea9f,5a5pydf7ma,"Mediated Recog Prolific",1,130,2023-05-08T19:49:04+00:00,3.2504761219025,7,versionD_stim.csv,ReadVersion_Recog.csv,"Read Recog",Read4,,ELECTION,RECOG,Control,94,128,Likert,User,1,"Was this item previously studied?",PRESENTED,Recog,1::2,2717,NO,20,-1,-1,0,0,,1
5e96e85aa7f126177e00ea9f,5a5pydf7ma,"Mediated Recog Prolific",1,131,2023-05-08T19:49:06+00:00,2.9365220069885,7,versionD_stim.csv,ReadVersion_Recog.csv,"Read Recog",Read4,,BOTTLE,RECOG,Control,71,95,Likert,User,1,"Was this item previously studied?",CONTROL,Recog,1::2,2371,NO,25,-1,-1,0,0,,1
5e96e85aa7f126177e00ea9f,5a5pydf7ma,"Mediated Recog Prolific",1,132,2023-05-08T19:49:09+00:00,2.9945538043976,7,versionD_stim.csv,ReadVersion_Recog.csv,"Read Recog",Read4,,CUT,RECOG,Presented,122,90,Likert,User,1,"Was this item previously studied?",CONTROL,Recog,1::2,2411,YES,0,-1,-1,0,0,,1
5e96e85aa7f126177e00ea9f,5a5pydf7ma,"Mediated Recog Prolific",1,133,2023-05-08T19:49:12+00:00,2.5462121963501,7,versionD_stim.csv,ReadVersion_Recog.csv,"Read Recog",Read4,,MORNING,RECOG,Control,103,68,Likert,User,1,"Was this item previously studied?",CONTROL,Recog,1::2,2010,YES,0,-1,-1,0,0,,1
5e96e85aa7f126177e00ea9f,5a5pydf7ma,"Mediated Recog Prolific",1,134,2023-05-08T19:49:15+00:00,2.5619859695435,7,versionD_stim.csv,ReadVersion_Recog.csv,"Read Recog",Read4,,COLLAR,RECOG,Presented,108,105,Likert,User,1,"Was this item previously studied?",PRESENTED,Recog,1::2,2008,YES,0,-1,-1,0,0,,1
5e96e85aa7f126177e00ea9f,5a5pydf7ma,"Mediated Recog Prolific",1,135,2023-05-08T19:49:18+00:00,3.9015250205994,7,versionD_stim.csv,ReadVersion_Recog.csv,"Read Recog",Read4,,COW,RECOG,Presented,133,103,Likert,User,1,"Was this item previously studied?",PRESENTED,Recog,1::2,3346,YES,0,-1,-1,0,0,,1
5e96e85aa7f126177e00ea9f,5a5pydf7ma,"Mediated Recog Prolific",1,136,2023-05-08T19:49:24+00:00,5.6635718345642,7,versionD_stim.csv,ReadVersion_Recog.csv,"Read Recog",Read4,,COLD,RECOG,Presented,132,134,Likert,User,1,"Was this item previously studied?",PRESENTED,Recog,1::2,4813,YES,0,-1,-1,0,0,,1
5e96e85aa7f126177e00ea9f,5a5pydf7ma,"Mediated Recog Prolific",1,137,2023-05-08T19:49:27+00:00,3.0822060108185,7,versionD_stim.csv,ReadVersion_Recog.csv,"Read Recog",Read4,,FINGER,RECOG,Control,72,88,Likert,User,1,"Was this item previously studied?",CONTROL,Recog,1::2,2122,YES,22.222222222222,-1,-1,0,0,,1
5e96e85aa7f126177e00ea9f,5a5pydf7ma,"Mediated Recog Prolific",1,138,2023-05-08T19:49:39+00:00,11.595473051071,7,versionD_stim.csv,ReadVersion_Recog.csv,"Read Recog",Read4,,DANCE,RECOG,Control,68,114,Likert,User,1,"Was this item previously studied?",PRESENTED,Recog,1::2,10763,YES,25,-1,-1,0,0,,1
5e96e85aa7f126177e00ea9f,5a5pydf7ma,"Mediated Recog Prolific",1,139,2023-05-08T19:49:44+00:00,4.7425401210785,7,versionD_stim.csv,ReadVersion_Recog.csv,"Read Recog",Read4,,LEG,RECOG,Presented,150,138,Likert,User,1,"Was this item previously studied?",PRESENTED,Recog,1::2,4140,YES,33.333333333333,-1,-1,0,0,,1
5e96e85aa7f126177e00ea9f,5a5pydf7ma,"Mediated Recog Prolific",1,140,2023-05-08T19:49:47+00:00,3.1670618057251,7,versionD_stim.csv,ReadVersion_Recog.csv,"Read Recog",Read4,,RED,RECOG,Presented,125,107,Likert,User,1,"Was this item previously studied?",PRESENTED,Recog,1::2,2619,YES,33.333333333333,-1,-1,0,0,,1
5e96e85aa7f126177e00ea9f,5a5pydf7ma,"Mediated Recog Prolific",1,141,2023-05-08T19:49:50+00:00,3.0634641647339,7,versionD_stim.csv,ReadVersion_Recog.csv,"Read Recog",Read4,,FICTION,RECOG,Control,99,81,Likert,User,1,"Was this item previously studied?",CONTROL,Recog,1::2,2504,YES,0,-1,-1,0,0,,1
5e96e85aa7f126177e00ea9f,5a5pydf7ma,"Mediated Recog Prolific",1,142,2023-05-08T19:49:55+00:00,4.9190700054169,7,versionD_stim.csv,ReadVersion_Recog.csv,"Read Recog",Read4,,CHARM,RECOG,Control,95,146,Likert,User,1,"Was this item previously studied?",PRESENTED,Recog,1::2,4384,YES,0,-1,-1,0,0,,1
5e96e85aa7f126177e00ea9f,5a5pydf7ma,"Mediated Recog Prolific",1,143,2023-05-08T19:50:02+00:00,7.3892068862915,7,versionD_stim.csv,ReadVersion_Recog.csv,"Read Recog",Read4,,COTTON,RECOG,Control,75,74,Likert,User,1,"Was this item previously studied?",CONTROL,Recog,1::2,6560,YES,0,-1,-1,0,0,,1
5e96e85aa7f126177e00ea9f,5a5pydf7ma,"Mediated Recog Prolific",1,144,2023-05-08T19:50:06+00:00,3.5006151199341,7,versionD_stim.csv,ReadVersion_Recog.csv,"Read Recog",Read4,,BUG,RECOG,Presented,134,61,Likert,User,1,"Was this item previously studied?",CONTROL,Recog,1::2,2932,YES,0,-1,-1,0,0,,1
5e96e85aa7f126177e00ea9f,5a5pydf7ma,"Mediated Recog Prolific",1,145,2023-05-08T19:50:10+00:00,4.1089189052582,7,versionD_stim.csv,ReadVersion_Recog.csv,"Read Recog",Read4,,SYRUP,RECOG,Control,66,141,Likert,User,1,"Was this item previously studied?",PRESENTED,Recog,1::2,3531,YES,25,-1,-1,0,0,,1
5e96e85aa7f126177e00ea9f,5a5pydf7ma,"Mediated Recog Prolific",1,146,2023-05-08T19:50:13+00:00,3.2801060676575,7,versionD_stim.csv,ReadVersion_Recog.csv,"Read Recog",Read4,,DRINK,RECOG,Control,87,57,Likert,User,1,"Was this item previously studied?",CONTROL,Recog,1::2,2722,YES,0,-1,-1,0,0,,1
5e96e85aa7f126177e00ea9f,5a5pydf7ma,"Mediated Recog Prolific",1,147,2023-05-08T19:50:16+00:00,2.7064988613129,7,versionD_stim.csv,ReadVersion_Recog.csv,"Read Recog",Read4,,DONKEY,RECOG,Control,79,75,Likert,User,1,"Was this item previously studied?",CONTROL,Recog,1::2,2163,NO,25,-1,-1,0,0,,1
5e96e85aa7f126177e00ea9f,5a5pydf7ma,"Mediated Recog Prolific",1,148,2023-05-08T19:50:21+00:00,5.10893201828,7,versionD_stim.csv,ReadVersion_Recog.csv,"Read Recog",Read4,,PLANT,RECOG,Presented,121,142,Likert,User,1,"Was this item previously studied?",PRESENTED,Recog,1::2,4553,YES,0,-1,-1,0,0,,1
5e96e85aa7f126177e00ea9f,5a5pydf7ma,"Mediated Recog Prolific",1,149,2023-05-08T19:50:25+00:00,3.7951490879059,7,versionD_stim.csv,ReadVersion_Recog.csv,"Read Recog",Read4,,SMELL,RECOG,Presented,110,79,Likert,User,1,"Was this item previously studied?",CONTROL,Recog,1::2,3255,NO,0,-1,-1,0,0,,1
5e96e85aa7f126177e00ea9f,5a5pydf7ma,"Mediated Recog Prolific",1,150,2023-05-08T19:50:28+00:00,3.0832419395447,7,versionD_stim.csv,ReadVersion_Recog.csv,"Read Recog",Read4,,PEAK,RECOG,Presented,118,96,Likert,User,1,"Was this item previously studied?",CONTROL,Recog,1::2,2499,YES,28.571428571429,-1,-1,0,0,,1
5e96e85aa7f126177e00ea9f,5a5pydf7ma,"Mediated Recog Prolific",1,151,2023-05-08T19:50:31+00:00,3.4028980731964,7,versionD_stim.csv,ReadVersion_Recog.csv,"Read Recog",Read4,,,,,,0,Instruct,User,-,"You have completed this section. Please press Enter.",,Instruct7,,2855,,,-1,-1,,,,1
5e96e85aa7f126177e00ea9f,5a5pydf7ma,"Mediated Recog Prolific",1,152,2023-05-08T19:50:35+00:00,3.4529709815979,7,versionD_stim.csv,ReadVersion_Recog.csv,"Read Recog",Read4,,,,,,0,Instruct,User,-,"The following screen will ask you a few questions abour your experience today. You must complete these questions to receive credit.",,Instruct8,,2932,,,-1,-1,,,,1
