Username,ID,ExperimentName,Session,Trial,Date,TimeDif,"Condition Number","Stimuli File","Order File","Condition Description","Condition Notes",Stimuli*Cue,Stimuli*Answer,Stimuli*Shuffle,"Stimuli*Stimuli Notes",Stimuli*Value,Procedure*Item,"Procedure*Trial Type","Procedure*Max Time","Procedure*Min Time",Procedure*Text,"Procedure*Procedure Notes",Procedure*Shuffle,Procedure*,Response*RT,Response*Response,Response*Accuracy,Response*RTfirst,Response*RTlast,Response*strictAcc,Response*lenientAcc,Response*focus,Response*Focus
w10147709,szx3o9ek7v,"Mediated JOLs",1,1,2023-03-25T03:13:32+00:00,6.8304510116577,5,versionC_stim.csv,ReadVersion_Recog.csv,"Read Recog",Read3,,,,,,0,Instruct,-,5,"In this section, you will be presented with a series of word pairs. Please study each word pair! Your memory will be tested!",Initial_Instruct,Instruct1,,6481,,,-1,-1,,,,1
w10147709,szx3o9ek7v,"Mediated JOLs",1,2,2023-03-25T03:13:38+00:00,5.9300701618195,5,versionC_stim.csv,ReadVersion_Recog.csv,"Read Recog",Read3,,,,,,0,Instruct,User,-,"You will now begin. Press Enter when you are ready to begin.",,Instruct16,,5424,,,-1,-1,,,,1
w10147709,szx3o9ek7v,"Mediated JOLs",1,3,2023-03-25T03:13:42+00:00,4.078234910965,5,versionC_stim.csv,ReadVersion_Recog.csv,"Read Recog",Read3,PITCHER,CATCHER,BUFFER1,Buffer,2,4,Study,User,-,,Study/JOL,BUFFER,,3781,,,-1,-1,,,,1
w10147709,szx3o9ek7v,"Mediated JOLs",1,4,2023-03-25T03:13:45+00:00,2.7315120697021,5,versionC_stim.csv,ReadVersion_Recog.csv,"Read Recog",Read3,SPACE,JAM,BUFFER1,Buffer,5,3,Study,User,-,,Study/JOL,BUFFER,,2425,,,-1,-1,,,,1
w10147709,szx3o9ek7v,"Mediated JOLs",1,5,2023-03-25T03:13:47+00:00,2.184406042099,5,versionC_stim.csv,ReadVersion_Recog.csv,"Read Recog",Read3,TREES,GREEN,BUFFER1,Buffer,1,6,Study,User,-,,Study/JOL,BUFFER,,1837,,,-1,-1,,,,1
w10147709,szx3o9ek7v,"Mediated JOLs",1,6,2023-03-25T03:13:50+00:00,2.349860906601,5,versionC_stim.csv,ReadVersion_Recog.csv,"Read Recog",Read3,SCARE,FRIGHT,BUFFER1,Buffer,4,2,Study,User,-,,Study/JOL,BUFFER,,2047,,,-1,-1,,,,1
w10147709,szx3o9ek7v,"Mediated JOLs",1,7,2023-03-25T03:13:53+00:00,3.6371490955353,5,versionC_stim.csv,ReadVersion_Recog.csv,"Read Recog",Read3,PEANUT,BUTTER,BUFFER1,Buffer,3,5,Study,User,-,,Study/JOL,BUFFER,,3338,,,-1,-1,,,,1
w10147709,szx3o9ek7v,"Mediated JOLs",1,8,2023-03-25T03:14:00+00:00,6.7373609542847,5,versionC_stim.csv,ReadVersion_Recog.csv,"Read Recog",Read3,TUNA,FISH,Study1,F,35,49,Study,User,-,,Study/JOL,"Study Phase",,6179,,,-1,-1,,,,1
w10147709,szx3o9ek7v,"Mediated JOLs",1,9,2023-03-25T03:14:05+00:00,4.5450899600983,5,versionC_stim.csv,ReadVersion_Recog.csv,"Read Recog",Read3,CRACKLE,ELECTION,Study1,U,39,37,Study,User,-,,Study/JOL,"Study Phase",,4088,,,-1,-1,,,,1
w10147709,szx3o9ek7v,"Mediated JOLs",1,10,2023-03-25T03:14:24+00:00,19.610878944397,5,versionC_stim.csv,ReadVersion_Recog.csv,"Read Recog",Read3,TEMPERATURE,MORNING,Study1,U,48,27,Study,User,-,,Study/JOL,"Study Phase",,19132,,,-1,-1,,,,1
w10147709,szx3o9ek7v,"Mediated JOLs",1,11,2023-03-25T03:14:26+00:00,1.8175580501556,5,versionC_stim.csv,ReadVersion_Recog.csv,"Read Recog",Read3,SOON,BELT,Study1,U,46,20,Study,User,-,,Study/JOL,"Study Phase",,1536,,,-1,-1,,,,1
w10147709,szx3o9ek7v,"Mediated JOLs",1,12,2023-03-25T03:14:35+00:00,9.3426558971405,5,versionC_stim.csv,ReadVersion_Recog.csv,"Read Recog",Read3,MULE,DONKEY,Study1,F,24,25,Study,User,-,,Study/JOL,"Study Phase",,8831,,,-1,-1,,,,1
w10147709,szx3o9ek7v,"Mediated JOLs",1,13,2023-03-25T03:14:39+00:00,3.7141101360321,5,versionC_stim.csv,ReadVersion_Recog.csv,"Read Recog",Read3,ROOT,PLANT,Study1,F,25,45,Study,User,-,,Study/JOL,"Study Phase",,3422,,,-1,-1,,,,1
w10147709,szx3o9ek7v,"Mediated JOLs",1,14,2023-03-25T03:14:44+00:00,5.089686870575,5,versionC_stim.csv,ReadVersion_Recog.csv,"Read Recog",Read3,ORCHID,FLOWER,Study1,F,34,17,Study,User,-,,Study/JOL,"Study Phase",,4573,,,-1,-1,,,,1
w10147709,szx3o9ek7v,"Mediated JOLs",1,15,2023-03-25T03:14:47+00:00,2.8748590946198,5,versionC_stim.csv,ReadVersion_Recog.csv,"Read Recog",Read3,CREDIT,CARD,Study1,F,33,46,Study,User,-,,Study/JOL,"Study Phase",,2583,,,-1,-1,,,,1
w10147709,szx3o9ek7v,"Mediated JOLs",1,16,2023-03-25T03:14:53+00:00,6.3481869697571,5,versionC_stim.csv,ReadVersion_Recog.csv,"Read Recog",Read3,CEILING,CARPET,Study1,M,15,32,Study,User,-,,Study/JOL,"Study Phase",,5741,,,-1,-1,,,,1
w10147709,szx3o9ek7v,"Mediated JOLs",1,17,2023-03-25T03:14:55+00:00,1.7365589141846,5,versionC_stim.csv,ReadVersion_Recog.csv,"Read Recog",Read3,LITTER,TRASH,Study1,F,21,24,Study,User,-,,Study/JOL,"Study Phase",,1441,,,-1,-1,,,,1
w10147709,szx3o9ek7v,"Mediated JOLs",1,18,2023-03-25T03:14:57+00:00,1.6758852005005,5,versionC_stim.csv,ReadVersion_Recog.csv,"Read Recog",Read3,BIRTHDAY,PIE,Study1,M,9,48,Study,User,-,,Study/JOL,"Study Phase",,1300,,,-1,-1,,,,1
w10147709,szx3o9ek7v,"Mediated JOLs",1,19,2023-03-25T03:15:01+00:00,3.9090068340302,5,versionC_stim.csv,ReadVersion_Recog.csv,"Read Recog",Read3,BAT,BOUNCE,Study1,M,12,11,Study,User,-,,Study/JOL,"Study Phase",,3545,,,-1,-1,,,,1
w10147709,szx3o9ek7v,"Mediated JOLs",1,20,2023-03-25T03:15:07+00:00,6.1978611946106,5,versionC_stim.csv,ReadVersion_Recog.csv,"Read Recog",Read3,WAR,QUIET,Study1,M,8,41,Study,User,-,,Study/JOL,"Study Phase",,4413,,,-1,-1,,,,1
w10147709,szx3o9ek7v,"Mediated JOLs",1,21,2023-03-25T03:15:13+00:00,6.5513319969177,5,versionC_stim.csv,ReadVersion_Recog.csv,"Read Recog",Read3,HYGIENE,CLEAN,Study1,F,28,29,Study,User,-,,Study/JOL,"Study Phase",,6029,,,-1,-1,,,,1
w10147709,szx3o9ek7v,"Mediated JOLs",1,22,2023-03-25T03:15:17+00:00,3.4516808986664,5,versionC_stim.csv,ReadVersion_Recog.csv,"Read Recog",Read3,KEYS,ROD,Study1,U,45,7,Study,User,-,,Study/JOL,"Study Phase",,3162,,,-1,-1,,,,1
w10147709,szx3o9ek7v,"Mediated JOLs",1,23,2023-03-25T03:15:24+00:00,7.5168631076813,5,versionC_stim.csv,ReadVersion_Recog.csv,"Read Recog",Read3,DAY,DARK,Study1,M,18,47,Study,User,-,,Study/JOL,"Study Phase",,7029,,,-1,-1,,,,1
w10147709,szx3o9ek7v,"Mediated JOLs",1,24,2023-03-25T03:15:26+00:00,1.4472599029541,5,versionC_stim.csv,ReadVersion_Recog.csv,"Read Recog",Read3,STRETCH,CLOTH,Study1,U,37,33,Study,User,-,,Study/JOL,"Study Phase",,1156,,,-1,-1,,,,1
w10147709,szx3o9ek7v,"Mediated JOLs",1,25,2023-03-25T03:15:29+00:00,3.1732079982758,5,versionC_stim.csv,ReadVersion_Recog.csv,"Read Recog",Read3,LION,STRIPES,Study1,M,6,28,Study,User,-,,Study/JOL,"Study Phase",,2820,,,-1,-1,,,,1
w10147709,szx3o9ek7v,"Mediated JOLs",1,26,2023-03-25T03:15:35+00:00,6.3207659721375,5,versionC_stim.csv,ReadVersion_Recog.csv,"Read Recog",Read3,SWAN,BIRD,Study1,F,26,15,Study,User,-,,Study/JOL,"Study Phase",,5760,,,-1,-1,,,,1
w10147709,szx3o9ek7v,"Mediated JOLs",1,27,2023-03-25T03:15:37+00:00,1.4618299007416,5,versionC_stim.csv,ReadVersion_Recog.csv,"Read Recog",Read3,SHELL,SHAKE,Study1,U,43,50,Study,User,-,,Study/JOL,"Study Phase",,1165,,,-1,-1,,,,1
w10147709,szx3o9ek7v,"Mediated JOLs",1,28,2023-03-25T03:15:38+00:00,1.4339270591736,5,versionC_stim.csv,ReadVersion_Recog.csv,"Read Recog",Read3,VEHICLE,CHARM,Study1,U,40,26,Study,User,-,,Study/JOL,"Study Phase",,1075,,,-1,-1,,,,1
w10147709,szx3o9ek7v,"Mediated JOLs",1,29,2023-03-25T03:15:41+00:00,2.9624421596527,5,versionC_stim.csv,ReadVersion_Recog.csv,"Read Recog",Read3,WAGE,MONEY,Study1,F,22,40,Study,User,-,,Study/JOL,"Study Phase",,2611,,,-1,-1,,,,1
w10147709,szx3o9ek7v,"Mediated JOLs",1,30,2023-03-25T03:15:43+00:00,1.3431317806244,5,versionC_stim.csv,ReadVersion_Recog.csv,"Read Recog",Read3,LISTEN,FICTION,Study1,U,44,21,Study,User,-,,Study/JOL,"Study Phase",,976,,,-1,-1,,,,1
w10147709,szx3o9ek7v,"Mediated JOLs",1,31,2023-03-25T03:15:44+00:00,1.2973001003265,5,versionC_stim.csv,ReadVersion_Recog.csv,"Read Recog",Read3,MAZE,PHONE,Study1,U,42,30,Study,User,-,,Study/JOL,"Study Phase",,949,,,-1,-1,,,,1
w10147709,szx3o9ek7v,"Mediated JOLs",1,32,2023-03-25T03:15:49+00:00,4.959734916687,5,versionC_stim.csv,ReadVersion_Recog.csv,"Read Recog",Read3,MEAT,KEYS,Study1,U,41,51,Study,User,-,,Study/JOL,"Study Phase",,4495,,,-1,-1,,,,1
w10147709,szx3o9ek7v,"Mediated JOLs",1,33,2023-03-25T03:15:50+00:00,1.3928780555725,5,versionC_stim.csv,ReadVersion_Recog.csv,"Read Recog",Read3,TREE,SYRUP,Study1,M,11,34,Study,User,-,,Study/JOL,"Study Phase",,1102,,,-1,-1,,,,1
w10147709,szx3o9ek7v,"Mediated JOLs",1,34,2023-03-25T03:15:52+00:00,1.4433739185333,5,versionC_stim.csv,ReadVersion_Recog.csv,"Read Recog",Read3,CAKE,HAND,Study1,U,49,9,Study,User,-,,Study/JOL,"Study Phase",,1147,,,-1,-1,,,,1
w10147709,szx3o9ek7v,"Mediated JOLs",1,35,2023-03-25T03:15:53+00:00,1.2428290843964,5,versionC_stim.csv,ReadVersion_Recog.csv,"Read Recog",Read3,HARD,COTTON,Study1,M,20,36,Study,User,-,,Study/JOL,"Study Phase",,880,,,-1,-1,,,,1
w10147709,szx3o9ek7v,"Mediated JOLs",1,36,2023-03-25T03:15:56+00:00,2.7518489360809,5,versionC_stim.csv,ReadVersion_Recog.csv,"Read Recog",Read3,NAP,SLEEP,Study1,F,29,8,Study,User,-,,Study/JOL,"Study Phase",,2403,,,-1,-1,,,,1
w10147709,szx3o9ek7v,"Mediated JOLs",1,37,2023-03-25T03:15:59+00:00,3.2985181808472,5,versionC_stim.csv,ReadVersion_Recog.csv,"Read Recog",Read3,AFFECTION,LOVE,Study1,F,31,31,Study,User,-,,Study/JOL,"Study Phase",,2933,,,-1,-1,,,,1
w10147709,szx3o9ek7v,"Mediated JOLs",1,38,2023-03-25T03:16:00+00:00,1.4166660308838,5,versionC_stim.csv,ReadVersion_Recog.csv,"Read Recog",Read3,FUZZY,BANG,Study1,U,50,19,Study,User,-,,Study/JOL,"Study Phase",,1074,,,-1,-1,,,,1
w10147709,szx3o9ek7v,"Mediated JOLs",1,39,2023-03-25T03:16:03+00:00,2.4830458164215,5,versionC_stim.csv,ReadVersion_Recog.csv,"Read Recog",Read3,SIGN,TICK,Study1,U,47,18,Study,User,-,,Study/JOL,"Study Phase",,1427,,,-1,-1,,,,1
w10147709,szx3o9ek7v,"Mediated JOLs",1,40,2023-03-25T03:16:04+00:00,1.4176471233368,5,versionC_stim.csv,ReadVersion_Recog.csv,"Read Recog",Read3,WEDDING,FINGER,Study1,M,17,10,Study,User,-,,Study/JOL,"Study Phase",,1067,,,-1,-1,,,,1
w10147709,szx3o9ek7v,"Mediated JOLs",1,41,2023-03-25T03:16:06+00:00,1.7858519554138,5,versionC_stim.csv,ReadVersion_Recog.csv,"Read Recog",Read3,SCALP,HEAD,Study1,F,23,38,Study,User,-,,Study/JOL,"Study Phase",,1043,,,-1,-1,,,,1
w10147709,szx3o9ek7v,"Mediated JOLs",1,42,2023-03-25T03:16:07+00:00,1.2242920398712,5,versionC_stim.csv,ReadVersion_Recog.csv,"Read Recog",Read3,WORD,SENTENCE,Study1,F,27,42,Study,User,-,,Study/JOL,"Study Phase",,938,,,-1,-1,,,,1
w10147709,szx3o9ek7v,"Mediated JOLs",1,43,2023-03-25T03:16:10+00:00,2.9414119720459,5,versionC_stim.csv,ReadVersion_Recog.csv,"Read Recog",Read3,CIRCLE,DANCE,Study1,M,13,43,Study,User,-,,Study/JOL,"Study Phase",,2608,,,-1,-1,,,,1
w10147709,szx3o9ek7v,"Mediated JOLs",1,44,2023-03-25T03:16:12+00:00,1.4433770179749,5,versionC_stim.csv,ReadVersion_Recog.csv,"Read Recog",Read3,MIRROR,MAROON,Study1,U,36,39,Study,User,-,,Study/JOL,"Study Phase",,1020,,,-1,-1,,,,1
w10147709,szx3o9ek7v,"Mediated JOLs",1,45,2023-03-25T03:16:17+00:00,5.2784018516541,5,versionC_stim.csv,ReadVersion_Recog.csv,"Read Recog",Read3,TOOTH,HAIR,Study1,M,19,12,Study,User,-,,Study/JOL,"Study Phase",,4781,,,-1,-1,,,,1
w10147709,szx3o9ek7v,"Mediated JOLs",1,46,2023-03-25T03:16:18+00:00,1.5105981826782,5,versionC_stim.csv,ReadVersion_Recog.csv,"Read Recog",Read3,HORSE,WHEEL,Study1,M,14,23,Study,User,-,,Study/JOL,"Study Phase",,1223,,,-1,-1,,,,1
w10147709,szx3o9ek7v,"Mediated JOLs",1,47,2023-03-25T03:16:22+00:00,3.5886628627777,5,versionC_stim.csv,ReadVersion_Recog.csv,"Read Recog",Read3,BEACH,BOX,Study1,M,7,35,Study,User,-,,Study/JOL,"Study Phase",,3281,,,-1,-1,,,,1
w10147709,szx3o9ek7v,"Mediated JOLs",1,48,2023-03-25T03:16:23+00:00,1.3644759654999,5,versionC_stim.csv,ReadVersion_Recog.csv,"Read Recog",Read3,MULE,DONKEY,Study1,F,30,44,Study,User,-,,Study/JOL,"Study Phase",,1062,,,-1,-1,,,,1
w10147709,szx3o9ek7v,"Mediated JOLs",1,49,2023-03-25T03:16:27+00:00,3.8884019851685,5,versionC_stim.csv,ReadVersion_Recog.csv,"Read Recog",Read3,CRY,BOTTLE,Study1,M,16,22,Study,User,-,,Study/JOL,"Study Phase",,3522,,,-1,-1,,,,1
w10147709,szx3o9ek7v,"Mediated JOLs",1,50,2023-03-25T03:16:29+00:00,1.6558940410614,5,versionC_stim.csv,ReadVersion_Recog.csv,"Read Recog",Read3,SIP,DRINK,Study1,F,32,16,Study,User,-,,Study/JOL,"Study Phase",,1270,,,-1,-1,,,,1
w10147709,szx3o9ek7v,"Mediated JOLs",1,51,2023-03-25T03:16:34+00:00,5.5034151077271,5,versionC_stim.csv,ReadVersion_Recog.csv,"Read Recog",Read3,ROUGH,SILK,Study1,M,10,14,Study,User,-,,Study/JOL,"Study Phase",,4895,,,-1,-1,,,,1
w10147709,szx3o9ek7v,"Mediated JOLs",1,52,2023-03-25T03:16:41+00:00,6.6609609127045,5,versionC_stim.csv,ReadVersion_Recog.csv,"Read Recog",Read3,GIVE,STEAK,Study1,U,38,13,Study,User,-,,Study/JOL,"Study Phase",,6176,,,-1,-1,,,,1
w10147709,szx3o9ek7v,"Mediated JOLs",1,53,2023-03-25T03:16:45+00:00,3.9861240386963,5,versionC_stim.csv,ReadVersion_Recog.csv,"Read Recog",Read3,MALT,CHOCOLATE,BUFFER2,Buffer,53,56,Study,User,-,,Study/JOL,BUFFER2,,3682,,,-1,-1,,,,1
w10147709,szx3o9ek7v,"Mediated JOLs",1,54,2023-03-25T03:16:49+00:00,3.4447300434113,5,versionC_stim.csv,ReadVersion_Recog.csv,"Read Recog",Read3,THING,STUFF,BUFFER2,Buffer,55,55,Study,User,-,,Study/JOL,BUFFER2,,3160,,,-1,-1,,,,1
w10147709,szx3o9ek7v,"Mediated JOLs",1,55,2023-03-25T03:16:50+00:00,1.4688460826874,5,versionC_stim.csv,ReadVersion_Recog.csv,"Read Recog",Read3,MOON,SPACE,BUFFER2,Buffer,54,53,Study,User,-,,Study/JOL,BUFFER2,,1136,,,-1,-1,,,,1
w10147709,szx3o9ek7v,"Mediated JOLs",1,56,2023-03-25T03:16:55+00:00,4.650661945343,5,versionC_stim.csv,ReadVersion_Recog.csv,"Read Recog",Read3,SHERRIF,POLICE,BUFFER2,Buffer,52,52,Study,User,-,,Study/JOL,BUFFER2,,4210,,,-1,-1,,,,1
w10147709,szx3o9ek7v,"Mediated JOLs",1,57,2023-03-25T03:17:02+00:00,7.4350979328156,5,versionC_stim.csv,ReadVersion_Recog.csv,"Read Recog",Read3,GEESE,GOOSE,BUFFER2,Buffer,51,54,Study,User,-,,Study/JOL,BUFFER2,,6938,,,-1,-1,,,,1
w10147709,szx3o9ek7v,"Mediated JOLs",1,58,2023-03-25T03:17:06+00:00,4.1131401062012,5,versionC_stim.csv,ReadVersion_Recog.csv,"Read Recog",Read3,,,,,,0,Instruct,User,-,"You have completed this section. Please press Enter.",Filler_Instruction,Instruct2,,3811,,,-1,-1,,,,1
w10147709,szx3o9ek7v,"Mediated JOLs",1,59,2023-03-25T03:19:07+00:00,120.64702987671,5,versionC_stim.csv,ReadVersion_Recog.csv,"Read Recog",Read3,,,,,,0,FreeRecall,120,120,"Please list the 50 US states in alphabetical order. The task will automatically advance to the next screen after two minutes.",,Filler1,,120002,"Alabama, Alaska, Arizona, Arkansas, California,Connecticut, Florida,",0,45715,111198,0,0,,1
w10147709,szx3o9ek7v,"Mediated JOLs",1,60,2023-03-25T03:19:26+00:00,19.537235021591,5,versionC_stim.csv,ReadVersion_Recog.csv,"Read Recog",Read3,,,,,,0,Instruct,User,10,"Your memory will now be tested. You will be presented with a series of words that may or may not have been previously presented alongside another word. If the word on the screen was previously studied, please select YES. If the word was not studied, select NO. PLEASE DO NOT SKIP ITEMS! Click next when you are ready to begin.",,Instruc7982154d,,18952,,,-1,-1,,,,1
w10147709,szx3o9ek7v,"Mediated JOLs",1,61,2023-03-25T03:19:37+00:00,11.048039913177,5,versionC_stim.csv,ReadVersion_Recog.csv,"Read Recog",Read3,,PLANT,RECOG,CONTROL,72,90,Likert,User,1,"Was this item previously studied?",CONTROL,Recog,1::2,10471,NO,28.571428571429,-1,-1,0,0,,1
w10147709,szx3o9ek7v,"Mediated JOLs",1,62,2023-03-25T03:19:44+00:00,7.0590591430664,5,versionC_stim.csv,ReadVersion_Recog.csv,"Read Recog",Read3,,BUG,RECOG,CONTROL,85,114,Likert,User,1,"Was this item previously studied?",PRESENTED,Recog,1::2,6442,NO,0,-1,-1,0,0,,1
w10147709,szx3o9ek7v,"Mediated JOLs",1,63,2023-03-25T03:19:48+00:00,3.0534510612488,5,versionC_stim.csv,ReadVersion_Recog.csv,"Read Recog",Read3,,STING,RECOG,CONTROL,81,98,Likert,User,1,"Was this item previously studied?",CONTROL,Recog,1::2,2756,YES,25,-1,-1,0,0,,1
w10147709,szx3o9ek7v,"Mediated JOLs",1,64,2023-03-25T03:19:53+00:00,5.854877948761,5,versionC_stim.csv,ReadVersion_Recog.csv,"Read Recog",Read3,,CHILDREN,RECOG,CONTROL,100,99,Likert,User,1,"Was this item previously studied?",CONTROL,Recog,1::2,5359,YES,18.181818181818,-1,-1,0,0,,1
w10147709,szx3o9ek7v,"Mediated JOLs",1,65,2023-03-25T03:19:57+00:00,3.1258029937744,5,versionC_stim.csv,ReadVersion_Recog.csv,"Read Recog",Read3,,MAROON,RECOG,Presented,132,57,Likert,User,1,"Was this item previously studied?",CONTROL,Recog,1::2,2836,YES,0,-1,-1,0,0,,1
w10147709,szx3o9ek7v,"Mediated JOLs",1,66,2023-03-25T03:20:00+00:00,3.0652320384979,5,versionC_stim.csv,ReadVersion_Recog.csv,"Read Recog",Read3,,RED,RECOG,CONTROL,76,115,Likert,User,1,"Was this item previously studied?",PRESENTED,Recog,1::2,2710,NO,0,-1,-1,0,0,,1
w10147709,szx3o9ek7v,"Mediated JOLs",1,67,2023-03-25T03:20:03+00:00,3.3146078586578,5,versionC_stim.csv,ReadVersion_Recog.csv,"Read Recog",Read3,,TRASH,RECOG,Presented,117,87,Likert,User,1,"Was this item previously studied?",CONTROL,Recog,1::2,2977,NO,0,-1,-1,0,0,,1
w10147709,szx3o9ek7v,"Mediated JOLs",1,68,2023-03-25T03:20:06+00:00,2.7049689292908,5,versionC_stim.csv,ReadVersion_Recog.csv,"Read Recog",Read3,,COLD,RECOG,CONTROL,83,82,Likert,User,1,"Was this item previously studied?",CONTROL,Recog,1::2,2369,YES,0,-1,-1,0,0,,1
w10147709,szx3o9ek7v,"Mediated JOLs",1,69,2023-03-25T03:20:08+00:00,2.6311922073364,5,versionC_stim.csv,ReadVersion_Recog.csv,"Read Recog",Read3,,BASKET,RECOG,CONTROL,67,122,Likert,User,1,"Was this item previously studied?",PRESENTED,Recog,1::2,2207,YES,22.222222222222,-1,-1,0,0,,1
w10147709,szx3o9ek7v,"Mediated JOLs",1,70,2023-03-25T03:20:11+00:00,2.8585329055786,5,versionC_stim.csv,ReadVersion_Recog.csv,"Read Recog",Read3,,SMELL,RECOG,CONTROL,79,127,Likert,User,1,"Was this item previously studied?",PRESENTED,Recog,1::2,2561,NO,0,-1,-1,0,0,,1
w10147709,szx3o9ek7v,"Mediated JOLs",1,71,2023-03-25T03:20:15+00:00,3.9341809749603,5,versionC_stim.csv,ReadVersion_Recog.csv,"Read Recog",Read3,,FIRE,RECOG,CONTROL,77,145,Likert,User,1,"Was this item previously studied?",PRESENTED,Recog,1::2,3589,NO,0,-1,-1,0,0,,1
w10147709,szx3o9ek7v,"Mediated JOLs",1,72,2023-03-25T03:20:18+00:00,2.6599199771881,5,versionC_stim.csv,ReadVersion_Recog.csv,"Read Recog",Read3,,COW,RECOG,CONTROL,84,75,Likert,User,1,"Was this item previously studied?",CONTROL,Recog,1::2,2287,YES,0,-1,-1,0,0,,1
w10147709,szx3o9ek7v,"Mediated JOLs",1,73,2023-03-25T03:20:20+00:00,2.4489290714264,5,versionC_stim.csv,ReadVersion_Recog.csv,"Read Recog",Read3,,SNOW,RECOG,CONTROL,57,58,Likert,User,1,"Was this item previously studied?",CONTROL,Recog,1::2,2081,YES,28.571428571429,-1,-1,0,0,,1
w10147709,szx3o9ek7v,"Mediated JOLs",1,74,2023-03-25T03:20:25+00:00,4.832603931427,5,versionC_stim.csv,ReadVersion_Recog.csv,"Read Recog",Read3,,VASE,RECOG,CONTROL,87,112,Likert,User,1,"Was this item previously studied?",PRESENTED,Recog,1::2,4295,YES,28.571428571429,-1,-1,0,0,,1
w10147709,szx3o9ek7v,"Mediated JOLs",1,75,2023-03-25T03:20:28+00:00,2.636482000351,5,versionC_stim.csv,ReadVersion_Recog.csv,"Read Recog",Read3,,BANG,RECOG,Presented,146,120,Likert,User,1,"Was this item previously studied?",PRESENTED,Recog,1::2,2344,,,-1,-1,,,,1
w10147709,szx3o9ek7v,"Mediated JOLs",1,76,2023-03-25T03:20:33+00:00,5.1303560733795,5,versionC_stim.csv,ReadVersion_Recog.csv,"Read Recog",Read3,,SYRUP,RECOG,Presented,107,104,Likert,User,1,"Was this item previously studied?",PRESENTED,Recog,1::2,4598,NO,0,-1,-1,0,0,,1
w10147709,szx3o9ek7v,"Mediated JOLs",1,77,2023-03-25T03:20:37+00:00,3.8552830219269,5,versionC_stim.csv,ReadVersion_Recog.csv,"Read Recog",Read3,,MUSCLE,RECOG,CONTROL,71,81,Likert,User,1,"Was this item previously studied?",CONTROL,Recog,1::2,3537,YES,22.222222222222,-1,-1,0,0,,1
w10147709,szx3o9ek7v,"Mediated JOLs",1,78,2023-03-25T03:20:39+00:00,2.8002259731293,5,versionC_stim.csv,ReadVersion_Recog.csv,"Read Recog",Read3,,COTTON,RECOG,Presented,116,63,Likert,User,1,"Was this item previously studied?",CONTROL,Recog,1::2,2498,YES,0,-1,-1,0,0,,1
w10147709,szx3o9ek7v,"Mediated JOLs",1,79,2023-03-25T03:20:43+00:00,3.5606739521027,5,versionC_stim.csv,ReadVersion_Recog.csv,"Read Recog",Read3,,CAVE,RECOG,CONTROL,66,144,Likert,User,1,"Was this item previously studied?",PRESENTED,Recog,1::2,3169,YES,28.571428571429,-1,-1,0,0,,1
w10147709,szx3o9ek7v,"Mediated JOLs",1,80,2023-03-25T03:20:45+00:00,2.4660279750824,5,versionC_stim.csv,ReadVersion_Recog.csv,"Read Recog",Read3,,ELECTION,RECOG,Presented,135,66,Likert,User,1,"Was this item previously studied?",CONTROL,Recog,1::2,2158,YES,18.181818181818,-1,-1,0,0,,1
w10147709,szx3o9ek7v,"Mediated JOLs",1,81,2023-03-25T03:20:48+00:00,2.9995739459991,5,versionC_stim.csv,ReadVersion_Recog.csv,"Read Recog",Read3,,STOP,RECOG,CONTROL,58,84,Likert,User,1,"Was this item previously studied?",CONTROL,Recog,1::2,2708,YES,28.571428571429,-1,-1,0,0,,1
w10147709,szx3o9ek7v,"Mediated JOLs",1,82,2023-03-25T03:20:52+00:00,3.8477761745453,5,versionC_stim.csv,ReadVersion_Recog.csv,"Read Recog",Read3,,FLOWER,RECOG,Presented,130,92,Likert,User,1,"Was this item previously studied?",CONTROL,Recog,1::2,3477,NO,25,-1,-1,0,0,,1
w10147709,szx3o9ek7v,"Mediated JOLs",1,83,2023-03-25T03:21:04+00:00,11.273685932159,5,versionC_stim.csv,ReadVersion_Recog.csv,"Read Recog",Read3,,BOTTLE,RECOG,Presented,112,79,Likert,User,1,"Was this item previously studied?",CONTROL,Recog,1::2,10612,YES,22.222222222222,-1,-1,0,0,,1
w10147709,szx3o9ek7v,"Mediated JOLs",1,84,2023-03-25T03:21:12+00:00,8.9159119129181,5,versionC_stim.csv,ReadVersion_Recog.csv,"Read Recog",Read3,,DONKEY,RECOG,Presented,126,103,Likert,User,1,"Was this item previously studied?",PRESENTED,Recog,1::2,8373,YES,22.222222222222,-1,-1,0,0,,1
w10147709,szx3o9ek7v,"Mediated JOLs",1,85,2023-03-25T03:21:17+00:00,4.8936111927032,5,versionC_stim.csv,ReadVersion_Recog.csv,"Read Recog",Read3,,DANCE,RECOG,Presented,109,78,Likert,User,1,"Was this item previously studied?",CONTROL,Recog,1::2,4396,YES,25,-1,-1,0,0,,1
w10147709,szx3o9ek7v,"Mediated JOLs",1,86,2023-03-25T03:21:21+00:00,4.0790889263153,5,versionC_stim.csv,ReadVersion_Recog.csv,"Read Recog",Read3,,BASEBALL,RECOG,CONTROL,80,68,Likert,User,1,"Was this item previously studied?",CONTROL,Recog,1::2,3776,YES,18.181818181818,-1,-1,0,0,,1
w10147709,szx3o9ek7v,"Mediated JOLs",1,87,2023-03-25T03:21:27+00:00,5.3033490180969,5,versionC_stim.csv,ReadVersion_Recog.csv,"Read Recog",Read3,,LOVE,RECOG,Presented,127,140,Likert,User,1,"Was this item previously studied?",PRESENTED,Recog,1::2,4839,NO,33.333333333333,-1,-1,0,0,,1
w10147709,szx3o9ek7v,"Mediated JOLs",1,88,2023-03-25T03:21:30+00:00,3.2453279495239,5,versionC_stim.csv,ReadVersion_Recog.csv,"Read Recog",Read3,,LEG,RECOG,CONTROL,101,136,Likert,User,1,"Was this item previously studied?",PRESENTED,Recog,1::2,2952,NO,0,-1,-1,0,0,,1
w10147709,szx3o9ek7v,"Mediated JOLs",1,89,2023-03-25T03:21:38+00:00,7.6703329086304,5,versionC_stim.csv,ReadVersion_Recog.csv,"Read Recog",Read3,,KEYS,RECOG,Presented,137,88,Likert,User,1,"Was this item previously studied?",CONTROL,Recog,1::2,7042,YES,57.142857142857,-1,-1,0,0,,1
w10147709,szx3o9ek7v,"Mediated JOLs",1,90,2023-03-25T03:21:52+00:00,14.758208990097,5,versionC_stim.csv,ReadVersion_Recog.csv,"Read Recog",Read3,,HAND,RECOG,Presented,145,80,Likert,User,1,"Was this item previously studied?",CONTROL,Recog,1::2,14159,YES,0,-1,-1,0,0,,1
w10147709,szx3o9ek7v,"Mediated JOLs",1,91,2023-03-25T03:21:56+00:00,3.094642162323,5,versionC_stim.csv,ReadVersion_Recog.csv,"Read Recog",Read3,,CUT,RECOG,CONTROL,73,59,Likert,User,1,"Was this item previously studied?",CONTROL,Recog,1::2,2784,YES,0,-1,-1,0,0,,1
w10147709,szx3o9ek7v,"Mediated JOLs",1,92,2023-03-25T03:21:59+00:00,3.502781867981,5,versionC_stim.csv,ReadVersion_Recog.csv,"Read Recog",Read3,,FIGHT,RECOG,CONTROL,82,77,Likert,User,1,"Was this item previously studied?",CONTROL,Recog,1::2,3158,YES,0,-1,-1,0,0,,1
w10147709,szx3o9ek7v,"Mediated JOLs",1,93,2023-03-25T03:22:05+00:00,6.3040850162506,5,versionC_stim.csv,ReadVersion_Recog.csv,"Read Recog",Read3,,FICTION,RECOG,Presented,140,129,Likert,User,1,"Was this item previously studied?",PRESENTED,Recog,1::2,5743,YES,0,-1,-1,0,0,,1
w10147709,szx3o9ek7v,"Mediated JOLs",1,94,2023-03-25T03:22:09+00:00,3.2675430774689,5,versionC_stim.csv,ReadVersion_Recog.csv,"Read Recog",Read3,,HEAD,RECOG,Presented,119,65,Likert,User,1,"Was this item previously studied?",CONTROL,Recog,1::2,2971,YES,28.571428571429,-1,-1,0,0,,1
w10147709,szx3o9ek7v,"Mediated JOLs",1,95,2023-03-25T03:22:11+00:00,2.5020489692688,5,versionC_stim.csv,ReadVersion_Recog.csv,"Read Recog",Read3,,ISLAND,RECOG,CONTROL,60,76,Likert,User,1,"Was this item previously studied?",CONTROL,Recog,1::2,2120,NO,25,-1,-1,0,0,,1
w10147709,szx3o9ek7v,"Mediated JOLs",1,96,2023-03-25T03:22:26+00:00,15.068917989731,5,versionC_stim.csv,ReadVersion_Recog.csv,"Read Recog",Read3,,TOIL,RECOG,CONTROL,97,102,Likert,User,1,"Was this item previously studied?",PRESENTED,Recog,1::2,10794,YES,0,-1,-1,0,0,,1
w10147709,szx3o9ek7v,"Mediated JOLs",1,97,2023-03-25T03:22:29+00:00,3.029305934906,5,versionC_stim.csv,ReadVersion_Recog.csv,"Read Recog",Read3,,SHAKE,RECOG,Presented,139,146,Likert,User,1,"Was this item previously studied?",PRESENTED,Recog,1::2,2723,YES,25,-1,-1,0,0,,1
w10147709,szx3o9ek7v,"Mediated JOLs",1,98,2023-03-25T03:22:32+00:00,2.9043459892273,5,versionC_stim.csv,ReadVersion_Recog.csv,"Read Recog",Read3,,THIGH,RECOG,CONTROL,68,124,Likert,User,1,"Was this item previously studied?",PRESENTED,Recog,1::2,2552,NO,0,-1,-1,0,0,,1
w10147709,szx3o9ek7v,"Mediated JOLs",1,99,2023-03-25T03:22:35+00:00,3.1656529903412,5,versionC_stim.csv,ReadVersion_Recog.csv,"Read Recog",Read3,,CAR,RECOG,CONTROL,88,106,Likert,User,1,"Was this item previously studied?",PRESENTED,Recog,1::2,2856,NO,0,-1,-1,0,0,,1
w10147709,szx3o9ek7v,"Mediated JOLs",1,100,2023-03-25T03:22:38+00:00,2.6851551532745,5,versionC_stim.csv,ReadVersion_Recog.csv,"Read Recog",Read3,,WOLF,RECOG,CONTROL,89,101,Likert,User,1,"Was this item previously studied?",CONTROL,Recog,1::2,2348,NO,33.333333333333,-1,-1,0,0,,1
w10147709,szx3o9ek7v,"Mediated JOLs",1,101,2023-03-25T03:22:41+00:00,2.8309030532837,5,versionC_stim.csv,ReadVersion_Recog.csv,"Read Recog",Read3,,SLEEP,RECOG,Presented,125,69,Likert,User,1,"Was this item previously studied?",CONTROL,Recog,1::2,2517,YES,25,-1,-1,0,0,,1
w10147709,szx3o9ek7v,"Mediated JOLs",1,102,2023-03-25T03:22:46+00:00,5.0058507919312,5,versionC_stim.csv,ReadVersion_Recog.csv,"Read Recog",Read3,,KNOB,RECOG,CONTROL,70,86,Likert,User,1,"Was this item previously studied?",CONTROL,Recog,1::2,4501,NO,66.666666666667,-1,-1,0,0,,1
w10147709,szx3o9ek7v,"Mediated JOLs",1,103,2023-03-25T03:22:49+00:00,3.0974020957947,5,versionC_stim.csv,ReadVersion_Recog.csv,"Read Recog",Read3,,ACCIDENT,RECOG,CONTROL,90,125,Likert,User,1,"Was this item previously studied?",PRESENTED,Recog,1::2,2806,YES,18.181818181818,-1,-1,0,0,,1
w10147709,szx3o9ek7v,"Mediated JOLs",1,104,2023-03-25T03:22:52+00:00,2.833270072937,5,versionC_stim.csv,ReadVersion_Recog.csv,"Read Recog",Read3,,STRIPES,RECOG,Presented,102,141,Likert,User,1,"Was this item previously studied?",PRESENTED,Recog,1::2,2525,YES,40,-1,-1,0,0,,1
w10147709,szx3o9ek7v,"Mediated JOLs",1,105,2023-03-25T03:22:54+00:00,2.5200140476227,5,versionC_stim.csv,ReadVersion_Recog.csv,"Read Recog",Read3,,MONEY,RECOG,Presented,118,108,Likert,User,1,"Was this item previously studied?",PRESENTED,Recog,1::2,2140,YES,25,-1,-1,0,0,,1
w10147709,szx3o9ek7v,"Mediated JOLs",1,106,2023-03-25T03:23:01+00:00,7.1822559833527,5,versionC_stim.csv,ReadVersion_Recog.csv,"Read Recog",Read3,,PHONE,RECOG,Presented,138,71,Likert,User,1,"Was this item previously studied?",CONTROL,Recog,1::2,6688,YES,25,-1,-1,0,0,,1
w10147709,szx3o9ek7v,"Mediated JOLs",1,107,2023-03-25T03:23:05+00:00,3.5221149921417,5,versionC_stim.csv,ReadVersion_Recog.csv,"Read Recog",Read3,,HAIR,RECOG,Presented,115,97,Likert,User,1,"Was this item previously studied?",CONTROL,Recog,1::2,2751,YES,0,-1,-1,0,0,,1
w10147709,szx3o9ek7v,"Mediated JOLs",1,108,2023-03-25T03:23:09+00:00,4.1822078227997,5,versionC_stim.csv,ReadVersion_Recog.csv,"Read Recog",Read3,,SENTENCE,RECOG,Presented,123,128,Likert,User,1,"Was this item previously studied?",PRESENTED,Recog,1::2,3832,YES,18.181818181818,-1,-1,0,0,,1
w10147709,szx3o9ek7v,"Mediated JOLs",1,109,2023-03-25T03:23:17+00:00,7.4613020420074,5,versionC_stim.csv,ReadVersion_Recog.csv,"Read Recog",Read3,,CLEAN,RECOG,Presented,124,61,Likert,User,1,"Was this item previously studied?",CONTROL,Recog,1::2,6904,NO,28.571428571429,-1,-1,0,0,,1
w10147709,szx3o9ek7v,"Mediated JOLs",1,110,2023-03-25T03:23:19+00:00,2.5076010227203,5,versionC_stim.csv,ReadVersion_Recog.csv,"Read Recog",Read3,,BIRD,RECOG,Presented,122,72,Likert,User,1,"Was this item previously studied?",CONTROL,Recog,1::2,2220,YES,0,-1,-1,0,0,,1
w10147709,szx3o9ek7v,"Mediated JOLs",1,111,2023-03-25T03:23:26+00:00,7.2111690044403,5,versionC_stim.csv,ReadVersion_Recog.csv,"Read Recog",Read3,,RIDDLE,RECOG,CONTROL,91,110,Likert,User,1,"Was this item previously studied?",PRESENTED,Recog,1::2,6724,YES,22.222222222222,-1,-1,0,0,,1
w10147709,szx3o9ek7v,"Mediated JOLs",1,112,2023-03-25T03:23:30+00:00,4.2021350860596,5,versionC_stim.csv,ReadVersion_Recog.csv,"Read Recog",Read3,,BELT,RECOG,Presented,142,135,Likert,User,1,"Was this item previously studied?",PRESENTED,Recog,1::2,3898,NO,0,-1,-1,0,0,,1
w10147709,szx3o9ek7v,"Mediated JOLs",1,113,2023-03-25T03:23:39+00:00,8.4982888698578,5,versionC_stim.csv,ReadVersion_Recog.csv,"Read Recog",Read3,,SMELL,RECOG,CONTROL,61,100,Likert,User,1,"Was this item previously studied?",CONTROL,Recog,1::2,7944,NO,0,-1,-1,0,0,,1
w10147709,szx3o9ek7v,"Mediated JOLs",1,114,2023-03-25T03:23:42+00:00,2.8238821029663,5,versionC_stim.csv,ReadVersion_Recog.csv,"Read Recog",Read3,,HORN,RECOG,CONTROL,94,118,Likert,User,1,"Was this item previously studied?",PRESENTED,Recog,1::2,2526,NO,33.333333333333,-1,-1,0,0,,1
w10147709,szx3o9ek7v,"Mediated JOLs",1,115,2023-03-25T03:23:45+00:00,3.0829079151154,5,versionC_stim.csv,ReadVersion_Recog.csv,"Read Recog",Read3,,SEED,RECOG,CONTROL,65,83,Likert,User,1,"Was this item previously studied?",CONTROL,Recog,1::2,2758,YES,28.571428571429,-1,-1,0,0,,1
w10147709,szx3o9ek7v,"Mediated JOLs",1,116,2023-03-25T03:23:49+00:00,3.9633741378784,5,versionC_stim.csv,ReadVersion_Recog.csv,"Read Recog",Read3,,MORNING,RECOG,Presented,144,109,Likert,User,1,"Was this item previously studied?",PRESENTED,Recog,1::2,2349,YES,0,-1,-1,0,0,,1
w10147709,szx3o9ek7v,"Mediated JOLs",1,117,2023-03-25T03:23:54+00:00,5.4871008396149,5,versionC_stim.csv,ReadVersion_Recog.csv,"Read Recog",Read3,,WATER,RECOG,CONTROL,86,139,Likert,User,1,"Was this item previously studied?",PRESENTED,Recog,1::2,4955,YES,25,-1,-1,0,0,,1
w10147709,szx3o9ek7v,"Mediated JOLs",1,118,2023-03-25T03:24:04+00:00,9.3226599693298,5,versionC_stim.csv,ReadVersion_Recog.csv,"Read Recog",Read3,,ROD,RECOG,Presented,141,137,Likert,User,1,"Was this item previously studied?",PRESENTED,Recog,1::2,8860,NO,40,-1,-1,0,0,,1
w10147709,szx3o9ek7v,"Mediated JOLs",1,119,2023-03-25T03:24:06+00:00,2.6879861354828,5,versionC_stim.csv,ReadVersion_Recog.csv,"Read Recog",Read3,,PAPER,RECOG,CONTROL,78,89,Likert,User,1,"Was this item previously studied?",CONTROL,Recog,1::2,2392,NO,0,-1,-1,0,0,,1
w10147709,szx3o9ek7v,"Mediated JOLs",1,120,2023-03-25T03:24:11+00:00,4.8716208934784,5,versionC_stim.csv,ReadVersion_Recog.csv,"Read Recog",Read3,,CARD,RECOG,Presented,129,143,Likert,User,1,"Was this item previously studied?",PRESENTED,Recog,1::2,4365,NO,0,-1,-1,0,0,,1
w10147709,szx3o9ek7v,"Mediated JOLs",1,121,2023-03-25T03:24:13+00:00,2.207417011261,5,versionC_stim.csv,ReadVersion_Recog.csv,"Read Recog",Read3,,PLANT,RECOG,Presented,121,95,Likert,User,1,"Was this item previously studied?",CONTROL,Recog,1::2,1898,YES,0,-1,-1,0,0,,1
w10147709,szx3o9ek7v,"Mediated JOLs",1,122,2023-03-25T03:24:18+00:00,4.2720930576324,5,versionC_stim.csv,ReadVersion_Recog.csv,"Read Recog",Read3,,PIE,RECOG,Presented,105,67,Likert,User,1,"Was this item previously studied?",CONTROL,Recog,1::2,3924,YES,33.333333333333,-1,-1,0,0,,1
w10147709,szx3o9ek7v,"Mediated JOLs",1,123,2023-03-25T03:24:22+00:00,4.2579588890076,5,versionC_stim.csv,ReadVersion_Recog.csv,"Read Recog",Read3,,TICK,RECOG,Presented,143,60,Likert,User,1,"Was this item previously studied?",CONTROL,Recog,1::2,3898,YES,0,-1,-1,0,0,,1
w10147709,szx3o9ek7v,"Mediated JOLs",1,124,2023-03-25T03:24:28+00:00,6.3763492107391,5,versionC_stim.csv,ReadVersion_Recog.csv,"Read Recog",Read3,,DARK,RECOG,Presented,114,62,Likert,User,1,"Was this item previously studied?",CONTROL,Recog,1::2,5847,YES,0,-1,-1,0,0,,1
w10147709,szx3o9ek7v,"Mediated JOLs",1,125,2023-03-25T03:24:31+00:00,3.0267508029938,5,versionC_stim.csv,ReadVersion_Recog.csv,"Read Recog",Read3,,PEAK,RECOG,CONTROL,69,94,Likert,User,1,"Was this item previously studied?",CONTROL,Recog,1::2,2733,YES,28.571428571429,-1,-1,0,0,,1
w10147709,szx3o9ek7v,"Mediated JOLs",1,126,2023-03-25T03:24:38+00:00,6.9054570198059,5,versionC_stim.csv,ReadVersion_Recog.csv,"Read Recog",Read3,,BOUNCE,RECOG,Presented,108,138,Likert,User,1,"Was this item previously studied?",PRESENTED,Recog,1::2,6393,YES,22.222222222222,-1,-1,0,0,,1
w10147709,szx3o9ek7v,"Mediated JOLs",1,127,2023-03-25T03:24:42+00:00,3.3808190822601,5,versionC_stim.csv,ReadVersion_Recog.csv,"Read Recog",Read3,,CLOTHES,RECOG,CONTROL,75,116,Likert,User,1,"Was this item previously studied?",PRESENTED,Recog,1::2,3067,YES,40,-1,-1,0,0,,1
w10147709,szx3o9ek7v,"Mediated JOLs",1,128,2023-03-25T03:24:44+00:00,2.4638030529022,5,versionC_stim.csv,ReadVersion_Recog.csv,"Read Recog",Read3,,OUNCE,RECOG,CONTROL,98,142,Likert,User,1,"Was this item previously studied?",PRESENTED,Recog,1::2,2167,YES,25,-1,-1,0,0,,1
w10147709,szx3o9ek7v,"Mediated JOLs",1,129,2023-03-25T03:24:49+00:00,4.8910758495331,5,versionC_stim.csv,ReadVersion_Recog.csv,"Read Recog",Read3,,DRINK,RECOG,Presented,128,91,Likert,User,1,"Was this item previously studied?",CONTROL,Recog,1::2,4326,YES,0,-1,-1,0,0,,1
w10147709,szx3o9ek7v,"Mediated JOLs",1,130,2023-03-25T03:24:52+00:00,2.7287430763245,5,versionC_stim.csv,ReadVersion_Recog.csv,"Read Recog",Read3,,CLUTTER,RECOG,CONTROL,92,70,Likert,User,1,"Was this item previously studied?",CONTROL,Recog,1::2,2423,YES,20,-1,-1,0,0,,1
w10147709,szx3o9ek7v,"Mediated JOLs",1,131,2023-03-25T03:24:55+00:00,2.8861010074615,5,versionC_stim.csv,ReadVersion_Recog.csv,"Read Recog",Read3,,DRINK,RECOG,CONTROL,63,64,Likert,User,1,"Was this item previously studied?",CONTROL,Recog,1::2,2558,YES,0,-1,-1,0,0,,1
w10147709,szx3o9ek7v,"Mediated JOLs",1,132,2023-03-25T03:24:57+00:00,2.6173660755157,5,versionC_stim.csv,ReadVersion_Recog.csv,"Read Recog",Read3,,SILK,RECOG,Presented,106,131,Likert,User,1,"Was this item previously studied?",PRESENTED,Recog,1::2,2305,YES,28.571428571429,-1,-1,0,0,,1
w10147709,szx3o9ek7v,"Mediated JOLs",1,133,2023-03-25T03:25:00+00:00,2.605682849884,5,versionC_stim.csv,ReadVersion_Recog.csv,"Read Recog",Read3,,HAMMER,RECOG,CONTROL,74,126,Likert,User,1,"Was this item previously studied?",PRESENTED,Recog,1::2,2221,YES,22.222222222222,-1,-1,0,0,,1
w10147709,szx3o9ek7v,"Mediated JOLs",1,134,2023-03-25T03:26:09+00:00,69.486483097076,5,versionC_stim.csv,ReadVersion_Recog.csv,"Read Recog",Read3,,SACK,RECOG,CONTROL,93,133,Likert,User,1,"Was this item previously studied?",PRESENTED,Recog,1::2,5213,NO,0,-1,-1,0,0,,1
w10147709,szx3o9ek7v,"Mediated JOLs",1,135,2023-03-25T03:26:13+00:00,3.3765630722046,5,versionC_stim.csv,ReadVersion_Recog.csv,"Read Recog",Read3,,DONKEY,RECOG,Presented,120,105,Likert,User,1,"Was this item previously studied?",PRESENTED,Recog,1::2,3082,YES,22.222222222222,-1,-1,0,0,,1
w10147709,szx3o9ek7v,"Mediated JOLs",1,136,2023-03-25T03:26:19+00:00,6.5244009494781,5,versionC_stim.csv,ReadVersion_Recog.csv,"Read Recog",Read3,,WHEEL,RECOG,Presented,110,132,Likert,User,1,"Was this item previously studied?",PRESENTED,Recog,1::2,5997,YES,25,-1,-1,0,0,,1
w10147709,szx3o9ek7v,"Mediated JOLs",1,137,2023-03-25T03:26:25+00:00,5.5545690059662,5,versionC_stim.csv,ReadVersion_Recog.csv,"Read Recog",Read3,,CLOTH,RECOG,Presented,133,123,Likert,User,1,"Was this item previously studied?",PRESENTED,Recog,1::2,5090,NO,28.571428571429,-1,-1,0,0,,1
w10147709,szx3o9ek7v,"Mediated JOLs",1,138,2023-03-25T03:26:35+00:00,10.130536079407,5,versionC_stim.csv,ReadVersion_Recog.csv,"Read Recog",Read3,,BUSINESS,RECOG,CONTROL,95,93,Likert,User,1,"Was this item previously studied?",CONTROL,Recog,1::2,9635,YES,36.363636363636,-1,-1,0,0,,1
w10147709,szx3o9ek7v,"Mediated JOLs",1,139,2023-03-25T03:26:38+00:00,2.9963569641113,5,versionC_stim.csv,ReadVersion_Recog.csv,"Read Recog",Read3,,BOX,RECOG,Presented,103,117,Likert,User,1,"Was this item previously studied?",PRESENTED,Recog,1::2,2708,YES,0,-1,-1,0,0,,1
w10147709,szx3o9ek7v,"Mediated JOLs",1,140,2023-03-25T03:26:46+00:00,7.8452508449554,5,versionC_stim.csv,ReadVersion_Recog.csv,"Read Recog",Read3,,CHARM,RECOG,Presented,136,107,Likert,User,1,"Was this item previously studied?",PRESENTED,Recog,1::2,7291,NO,0,-1,-1,0,0,,1
w10147709,szx3o9ek7v,"Mediated JOLs",1,141,2023-03-25T03:26:49+00:00,2.7915680408478,5,versionC_stim.csv,ReadVersion_Recog.csv,"Read Recog",Read3,,COLLAR,RECOG,CONTROL,59,119,Likert,User,1,"Was this item previously studied?",PRESENTED,Recog,1::2,2493,NO,25,-1,-1,0,0,,1
w10147709,szx3o9ek7v,"Mediated JOLs",1,142,2023-03-25T03:27:00+00:00,11.871011972427,5,versionC_stim.csv,ReadVersion_Recog.csv,"Read Recog",Read3,,FINGER,RECOG,Presented,113,85,Likert,User,1,"Was this item previously studied?",CONTROL,Recog,1::2,9699,NO,25,-1,-1,0,0,,1
w10147709,szx3o9ek7v,"Mediated JOLs",1,143,2023-03-25T03:27:44+00:00,43.411488056183,5,versionC_stim.csv,ReadVersion_Recog.csv,"Read Recog",Read3,,BRONZE,RECOG,CONTROL,99,73,Likert,User,1,"Was this item previously studied?",CONTROL,Recog,1::2,42815,NO,25,-1,-1,0,0,,1
w10147709,szx3o9ek7v,"Mediated JOLs",1,144,2023-03-25T03:27:47+00:00,2.9187068939209,5,versionC_stim.csv,ReadVersion_Recog.csv,"Read Recog",Read3,,LAWYER,RECOG,CONTROL,62,134,Likert,User,1,"Was this item previously studied?",PRESENTED,Recog,1::2,2629,NO,0,-1,-1,0,0,,1
w10147709,szx3o9ek7v,"Mediated JOLs",1,145,2023-03-25T03:27:53+00:00,6.1873462200165,5,versionC_stim.csv,ReadVersion_Recog.csv,"Read Recog",Read3,,QUIET,RECOG,Presented,104,74,Likert,User,1,"Was this item previously studied?",CONTROL,Recog,1::2,5553,NO,0,-1,-1,0,0,,1
w10147709,szx3o9ek7v,"Mediated JOLs",1,146,2023-03-25T03:27:55+00:00,2.3514909744263,5,versionC_stim.csv,ReadVersion_Recog.csv,"Read Recog",Read3,,CARPET,RECOG,Presented,111,130,Likert,User,1,"Was this item previously studied?",PRESENTED,Recog,1::2,2046,YES,22.222222222222,-1,-1,0,0,,1
w10147709,szx3o9ek7v,"Mediated JOLs",1,147,2023-03-25T03:27:58+00:00,2.5207870006561,5,versionC_stim.csv,ReadVersion_Recog.csv,"Read Recog",Read3,,STEAK,RECOG,Presented,134,111,Likert,User,1,"Was this item previously studied?",PRESENTED,Recog,1::2,2148,YES,25,-1,-1,0,0,,1
w10147709,szx3o9ek7v,"Mediated JOLs",1,148,2023-03-25T03:28:04+00:00,5.777007818222,5,versionC_stim.csv,ReadVersion_Recog.csv,"Read Recog",Read3,,FEATHER,RECOG,CONTROL,64,96,Likert,User,1,"Was this item previously studied?",CONTROL,Recog,1::2,5301,YES,20,-1,-1,0,0,,1
w10147709,szx3o9ek7v,"Mediated JOLs",1,149,2023-03-25T03:28:09+00:00,5.0062010288239,5,versionC_stim.csv,ReadVersion_Recog.csv,"Read Recog",Read3,,FISH,RECOG,Presented,131,113,Likert,User,1,"Was this item previously studied?",PRESENTED,Recog,1::2,4546,YES,28.571428571429,-1,-1,0,0,,1
w10147709,szx3o9ek7v,"Mediated JOLs",1,150,2023-03-25T03:28:50+00:00,41.183735132217,5,versionC_stim.csv,ReadVersion_Recog.csv,"Read Recog",Read3,,HIDE,RECOG,CONTROL,96,121,Likert,User,1,"Was this item previously studied?",PRESENTED,Recog,1::2,40687,NO,0,-1,-1,0,0,,1
w10147709,szx3o9ek7v,"Mediated JOLs",1,151,2023-03-25T03:28:53+00:00,2.9710190296173,5,versionC_stim.csv,ReadVersion_Recog.csv,"Read Recog",Read3,,,,,,0,Instruct,User,-,"You have completed this section. Please press Enter.",,Instruct7,,2682,,,-1,-1,,,,1
w10147709,szx3o9ek7v,"Mediated JOLs",1,152,2023-03-25T03:29:00+00:00,7.0658860206604,5,versionC_stim.csv,ReadVersion_Recog.csv,"Read Recog",Read3,,,,,,0,Instruct,User,-,"The following screen will ask you a few questions abour your experience today. You must complete these questions to receive credit.",,Instruct8,,6586,,,-1,-1,,,,1
