"Username","Condition.Number","Condition.Description","Stimuli.Cue","Stimuli.Answer","Stimuli.Shuffle","Stimuli.Stimuli.Notes","Stimuli.Value","Procedure.Item","Procedure.Trial.Type","Procedure.Shuffle","Procedure.","Response.RT","Response.Response","Response.JOL"
"56d684fffc7879000c77d87f",5,"Read Recog","WAR","QUIET","Study1","M",8,24,"Study","Study Phase","",1325,"",NA
"56d684fffc7879000c77d87f",5,"Read Recog","ROOT","PLANT","Study1","F",25,27,"Study","Study Phase","",842,"",NA
"56d684fffc7879000c77d87f",5,"Read Recog","FUZZY","BANG","Study1","U",50,46,"Study","Study Phase","",1112,"",NA
"56d684fffc7879000c77d87f",5,"Read Recog","SOON","BELT","Study1","U",46,10,"Study","Study Phase","",1080,"",NA
"56d684fffc7879000c77d87f",5,"Read Recog","MULE","DONKEY","Study1","F",24,47,"Study","Study Phase","",923,"",NA
"56d684fffc7879000c77d87f",5,"Read Recog","CREDIT","CARD","Study1","F",33,19,"Study","Study Phase","",931,"",NA
"56d684fffc7879000c77d87f",5,"Read Recog","WORD","SENTENCE","Study1","F",27,18,"Study","Study Phase","",913,"",NA
"56d684fffc7879000c77d87f",5,"Read Recog","HYGIENE","CLEAN","Study1","F",28,41,"Study","Study Phase","",917,"",NA
"56d684fffc7879000c77d87f",5,"Read Recog","ORCHID","FLOWER","Study1","F",34,38,"Study","Study Phase","",945,"",NA
"56d684fffc7879000c77d87f",5,"Read Recog","BEACH","BOX","Study1","M",7,51,"Study","Study Phase","",758,"",NA
"56d684fffc7879000c77d87f",5,"Read Recog","LITTER","TRASH","Study1","F",21,40,"Study","Study Phase","",1857,"",NA
"56d684fffc7879000c77d87f",5,"Read Recog","TREE","SYRUP","Study1","M",11,22,"Study","Study Phase","",848,"",NA
"56d684fffc7879000c77d87f",5,"Read Recog","KEYS","ROD","Study1","U",45,26,"Study","Study Phase","",797,"",NA
"56d684fffc7879000c77d87f",5,"Read Recog","BIRTHDAY","PIE","Study1","M",9,48,"Study","Study Phase","",1075,"",NA
"56d684fffc7879000c77d87f",5,"Read Recog","ROUGH","SILK","Study1","M",10,8,"Study","Study Phase","",1009,"",NA
"56d684fffc7879000c77d87f",5,"Read Recog","MULE","DONKEY","Study1","F",30,43,"Study","Study Phase","",950,"",NA
"56d684fffc7879000c77d87f",5,"Read Recog","SIP","DRINK","Study1","F",32,23,"Study","Study Phase","",1067,"",NA
"56d684fffc7879000c77d87f",5,"Read Recog","NAP","SLEEP","Study1","F",29,50,"Study","Study Phase","",810,"",NA
"56d684fffc7879000c77d87f",5,"Read Recog","SCALP","HEAD","Study1","F",23,36,"Study","Study Phase","",849,"",NA
"56d684fffc7879000c77d87f",5,"Read Recog","MIRROR","MAROON","Study1","U",36,11,"Study","Study Phase","",898,"",NA
"56d684fffc7879000c77d87f",5,"Read Recog","SHELL","SHAKE","Study1","U",43,25,"Study","Study Phase","",1018,"",NA
"56d684fffc7879000c77d87f",5,"Read Recog","CRY","BOTTLE","Study1","M",16,31,"Study","Study Phase","",999,"",NA
"56d684fffc7879000c77d87f",5,"Read Recog","MEAT","KEYS","Study1","U",41,37,"Study","Study Phase","",880,"",NA
"56d684fffc7879000c77d87f",5,"Read Recog","TEMPERATURE","MORNING","Study1","U",48,12,"Study","Study Phase","",1122,"",NA
"56d684fffc7879000c77d87f",5,"Read Recog","WAGE","MONEY","Study1","F",22,34,"Study","Study Phase","",912,"",NA
"56d684fffc7879000c77d87f",5,"Read Recog","CEILING","CARPET","Study1","M",15,35,"Study","Study Phase","",1147,"",NA
"56d684fffc7879000c77d87f",5,"Read Recog","LISTEN","FICTION","Study1","U",44,13,"Study","Study Phase","",646,"",NA
"56d684fffc7879000c77d87f",5,"Read Recog","HORSE","WHEEL","Study1","M",14,45,"Study","Study Phase","",1000,"",NA
"56d684fffc7879000c77d87f",5,"Read Recog","TOOTH","HAIR","Study1","M",19,21,"Study","Study Phase","",1080,"",NA
"56d684fffc7879000c77d87f",5,"Read Recog","SWAN","BIRD","Study1","F",26,32,"Study","Study Phase","",922,"",NA
"56d684fffc7879000c77d87f",5,"Read Recog","CAKE","HAND","Study1","U",49,33,"Study","Study Phase","",735,"",NA
"56d684fffc7879000c77d87f",5,"Read Recog","WEDDING","FINGER","Study1","M",17,28,"Study","Study Phase","",1078,"",NA
"56d684fffc7879000c77d87f",5,"Read Recog","STRETCH","CLOTH","Study1","U",37,30,"Study","Study Phase","",1082,"",NA
"56d684fffc7879000c77d87f",5,"Read Recog","DAY","DARK","Study1","M",18,7,"Study","Study Phase","",722,"",NA
"56d684fffc7879000c77d87f",5,"Read Recog","SIGN","TICK","Study1","U",47,39,"Study","Study Phase","",838,"",NA
"56d684fffc7879000c77d87f",5,"Read Recog","LION","STRIPES","Study1","M",6,15,"Study","Study Phase","",1230,"",NA
"56d684fffc7879000c77d87f",5,"Read Recog","CRACKLE","ELECTION","Study1","U",39,49,"Study","Study Phase","",1367,"",NA
"56d684fffc7879000c77d87f",5,"Read Recog","MAZE","PHONE","Study1","U",42,20,"Study","Study Phase","",1193,"",NA
"56d684fffc7879000c77d87f",5,"Read Recog","AFFECTION","LOVE","Study1","F",31,9,"Study","Study Phase","",790,"",NA
"56d684fffc7879000c77d87f",5,"Read Recog","HARD","COTTON","Study1","M",20,44,"Study","Study Phase","",701,"",NA
"56d684fffc7879000c77d87f",5,"Read Recog","CIRCLE","DANCE","Study1","M",13,14,"Study","Study Phase","",1078,"",NA
"56d684fffc7879000c77d87f",5,"Read Recog","BAT","BOUNCE","Study1","M",12,29,"Study","Study Phase","",592,"",NA
"56d684fffc7879000c77d87f",5,"Read Recog","GIVE","STEAK","Study1","U",38,42,"Study","Study Phase","",850,"",NA
"56d684fffc7879000c77d87f",5,"Read Recog","TUNA","FISH","Study1","F",35,17,"Study","Study Phase","",855,"",NA
"56d684fffc7879000c77d87f",5,"Read Recog","VEHICLE","CHARM","Study1","U",40,16,"Study","Study Phase","",3496,"",NA
"5734b743d0f8fe10e4e4415d",5,"Read Recog","DAY","DARK","Study1","M",18,35,"Study","Study Phase","",924,"",NA
"5734b743d0f8fe10e4e4415d",5,"Read Recog","WAR","QUIET","Study1","M",8,24,"Study","Study Phase","",1380,"",NA
"5734b743d0f8fe10e4e4415d",5,"Read Recog","CRY","BOTTLE","Study1","M",16,27,"Study","Study Phase","",2058,"",NA
"5734b743d0f8fe10e4e4415d",5,"Read Recog","BAT","BOUNCE","Study1","M",12,39,"Study","Study Phase","",1353,"",NA
"5734b743d0f8fe10e4e4415d",5,"Read Recog","SOON","BELT","Study1","U",46,42,"Study","Study Phase","",1148,"",NA
"5734b743d0f8fe10e4e4415d",5,"Read Recog","MIRROR","MAROON","Study1","U",36,21,"Study","Study Phase","",1672,"",NA
"5734b743d0f8fe10e4e4415d",5,"Read Recog","MEAT","KEYS","Study1","U",41,18,"Study","Study Phase","",1664,"",NA
"5734b743d0f8fe10e4e4415d",5,"Read Recog","ROUGH","SILK","Study1","M",10,51,"Study","Study Phase","",1195,"",NA
"5734b743d0f8fe10e4e4415d",5,"Read Recog","WEDDING","FINGER","Study1","M",17,29,"Study","Study Phase","",1086,"",NA
"5734b743d0f8fe10e4e4415d",5,"Read Recog","SIP","DRINK","Study1","F",32,37,"Study","Study Phase","",1205,"",NA
"5734b743d0f8fe10e4e4415d",5,"Read Recog","MULE","DONKEY","Study1","F",24,11,"Study","Study Phase","",1350,"",NA
"5734b743d0f8fe10e4e4415d",5,"Read Recog","LION","STRIPES","Study1","M",6,30,"Study","Study Phase","",1359,"",NA
"5734b743d0f8fe10e4e4415d",5,"Read Recog","CREDIT","CARD","Study1","F",33,20,"Study","Study Phase","",793,"",NA
"5734b743d0f8fe10e4e4415d",5,"Read Recog","LITTER","TRASH","Study1","F",21,22,"Study","Study Phase","",1178,"",NA
"5734b743d0f8fe10e4e4415d",5,"Read Recog","MAZE","PHONE","Study1","U",42,15,"Study","Study Phase","",933,"",NA
"5734b743d0f8fe10e4e4415d",5,"Read Recog","TOOTH","HAIR","Study1","M",19,19,"Study","Study Phase","",1814,"",NA
"5734b743d0f8fe10e4e4415d",5,"Read Recog","SHELL","SHAKE","Study1","U",43,50,"Study","Study Phase","",1562,"",NA
"5734b743d0f8fe10e4e4415d",5,"Read Recog","HARD","COTTON","Study1","M",20,32,"Study","Study Phase","",1058,"",NA
"5734b743d0f8fe10e4e4415d",5,"Read Recog","CEILING","CARPET","Study1","M",15,40,"Study","Study Phase","",1536,"",NA
"5734b743d0f8fe10e4e4415d",5,"Read Recog","MULE","DONKEY","Study1","F",30,28,"Study","Study Phase","",1096,"",NA
"5734b743d0f8fe10e4e4415d",5,"Read Recog","ORCHID","FLOWER","Study1","F",34,44,"Study","Study Phase","",1207,"",NA
"5734b743d0f8fe10e4e4415d",5,"Read Recog","TUNA","FISH","Study1","F",35,12,"Study","Study Phase","",904,"",NA
"5734b743d0f8fe10e4e4415d",5,"Read Recog","WAGE","MONEY","Study1","F",22,7,"Study","Study Phase","",1144,"",NA
"5734b743d0f8fe10e4e4415d",5,"Read Recog","BIRTHDAY","PIE","Study1","M",9,33,"Study","Study Phase","",898,"",NA
"5734b743d0f8fe10e4e4415d",5,"Read Recog","GIVE","STEAK","Study1","U",38,45,"Study","Study Phase","",941,"",NA
"5734b743d0f8fe10e4e4415d",5,"Read Recog","SWAN","BIRD","Study1","F",26,49,"Study","Study Phase","",851,"",NA
"5734b743d0f8fe10e4e4415d",5,"Read Recog","BEACH","BOX","Study1","M",7,48,"Study","Study Phase","",670,"",NA
"5734b743d0f8fe10e4e4415d",5,"Read Recog","HYGIENE","CLEAN","Study1","F",28,43,"Study","Study Phase","",886,"",NA
"5734b743d0f8fe10e4e4415d",5,"Read Recog","TREE","SYRUP","Study1","M",11,46,"Study","Study Phase","",1100,"",NA
"5734b743d0f8fe10e4e4415d",5,"Read Recog","NAP","SLEEP","Study1","F",29,36,"Study","Study Phase","",907,"",NA
"5734b743d0f8fe10e4e4415d",5,"Read Recog","AFFECTION","LOVE","Study1","F",31,23,"Study","Study Phase","",742,"",NA
"5734b743d0f8fe10e4e4415d",5,"Read Recog","LISTEN","FICTION","Study1","U",44,34,"Study","Study Phase","",1176,"",NA
"5734b743d0f8fe10e4e4415d",5,"Read Recog","KEYS","ROD","Study1","U",45,17,"Study","Study Phase","",917,"",NA
"5734b743d0f8fe10e4e4415d",5,"Read Recog","SCALP","HEAD","Study1","F",23,31,"Study","Study Phase","",718,"",NA
"5734b743d0f8fe10e4e4415d",5,"Read Recog","STRETCH","CLOTH","Study1","U",37,8,"Study","Study Phase","",892,"",NA
"5734b743d0f8fe10e4e4415d",5,"Read Recog","WORD","SENTENCE","Study1","F",27,47,"Study","Study Phase","",665,"",NA
"5734b743d0f8fe10e4e4415d",5,"Read Recog","SIGN","TICK","Study1","U",47,13,"Study","Study Phase","",990,"",NA
"5734b743d0f8fe10e4e4415d",5,"Read Recog","CIRCLE","DANCE","Study1","M",13,26,"Study","Study Phase","",891,"",NA
"5734b743d0f8fe10e4e4415d",5,"Read Recog","CRACKLE","ELECTION","Study1","U",39,25,"Study","Study Phase","",1543,"",NA
"5734b743d0f8fe10e4e4415d",5,"Read Recog","ROOT","PLANT","Study1","F",25,41,"Study","Study Phase","",670,"",NA
"5734b743d0f8fe10e4e4415d",5,"Read Recog","HORSE","WHEEL","Study1","M",14,10,"Study","Study Phase","",786,"",NA
"5734b743d0f8fe10e4e4415d",5,"Read Recog","CAKE","HAND","Study1","U",49,38,"Study","Study Phase","",739,"",NA
"5734b743d0f8fe10e4e4415d",5,"Read Recog","VEHICLE","CHARM","Study1","U",40,16,"Study","Study Phase","",1040,"",NA
"5734b743d0f8fe10e4e4415d",5,"Read Recog","FUZZY","BANG","Study1","U",50,14,"Study","Study Phase","",654,"",NA
"5734b743d0f8fe10e4e4415d",5,"Read Recog","TEMPERATURE","MORNING","Study1","U",48,9,"Study","Study Phase","",791,"",NA
"57b28526f6b9390001af1edd",7,"Read Recog","HEAVY","FEATHER","Study2","M",13,27,"Study","Study Phase","",11966,"",NA
"57b28526f6b9390001af1edd",7,"Read Recog","SUMMER","SNOW","Study2","M",6,25,"Study","Study Phase","",1441,"",NA
"57b28526f6b9390001af1edd",7,"Read Recog","WINDOW","KNOB","Study2","M",19,47,"Study","Study Phase","",1487,"",NA
"57b28526f6b9390001af1edd",7,"Read Recog","REALITY","ISLAND","Study2","M",9,35,"Study","Study Phase","",1635,"",NA
"57b28526f6b9390001af1edd",7,"Read Recog","ARTERY","BRONZE","Study2","U",48,42,"Study","Study Phase","",3958,"",NA
"57b28526f6b9390001af1edd",7,"Read Recog","SCHOOL","STOP","Study2","M",7,46,"Study","Study Phase","",1255,"",NA
"57b28526f6b9390001af1edd",7,"Read Recog","DOCUMENT","PAPER","Study2","F",27,19,"Study","Study Phase","",1399,"",NA
"57b28526f6b9390001af1edd",7,"Read Recog","BENCH","HORN","Study2","U",43,16,"Study","Study Phase","",1233,"",NA
"57b28526f6b9390001af1edd",7,"Read Recog","GRILL","THIGH","Study2","M",17,21,"Study","Study Phase","",2088,"",NA
"57b28526f6b9390001af1edd",7,"Read Recog","SUGAR","RIDDLE","Study2","U",40,33,"Study","Study Phase","",1876,"",NA
"57b28526f6b9390001af1edd",7,"Read Recog","KING","VASE","Study2","U",36,7,"Study","Study Phase","",2695,"",NA
"57b28526f6b9390001af1edd",7,"Read Recog","FEUD","FIGHT","Study2","F",31,12,"Study","Study Phase","",1375,"",NA
"57b28526f6b9390001af1edd",7,"Read Recog","CHOP","CUT","Study2","F",22,30,"Study","Study Phase","",2667,"",NA
"57b28526f6b9390001af1edd",7,"Read Recog","HAPPY","CAR","Study2","U",37,49,"Study","Study Phase","",1056,"",NA
"57b28526f6b9390001af1edd",7,"Read Recog","EYES","SMELL","Study2","M",10,24,"Study","Study Phase","",1001,"",NA
"57b28526f6b9390001af1edd",7,"Read Recog","MIRROR","CHILDREN","Study2","U",49,44,"Study","Study Phase","",1391,"",NA
"57b28526f6b9390001af1edd",7,"Read Recog","DEATH","BUSINESS","Study2","U",44,51,"Study","Study Phase","",1308,"",NA
"57b28526f6b9390001af1edd",7,"Read Recog","RAZOR","MUSCLE","Study2","M",20,40,"Study","Study Phase","",1064,"",NA
"57b28526f6b9390001af1edd",7,"Read Recog","CHILL","COLD","Study2","F",32,50,"Study","Study Phase","",1192,"",NA
"57b28526f6b9390001af1edd",7,"Read Recog","OVEN","BASKET","Study2","M",16,10,"Study","Study Phase","",991,"",NA
"57b28526f6b9390001af1edd",7,"Read Recog","ART","WOLF","Study2","U",38,17,"Study","Study Phase","",4742,"",NA
"57b28526f6b9390001af1edd",7,"Read Recog","HORNET","STING","Study2","F",30,22,"Study","Study Phase","",1307,"",NA
"57b28526f6b9390001af1edd",7,"Read Recog","VALLEY","PEAK","Study2","M",18,13,"Study","Study Phase","",948,"",NA
"57b28526f6b9390001af1edd",7,"Read Recog","STRONG","ACCIDENT","Study2","U",39,32,"Study","Study Phase","",1203,"",NA
"57b28526f6b9390001af1edd",7,"Read Recog","WASP","BUG","Study2","F",34,20,"Study","Study Phase","",2909,"",NA
"57b28526f6b9390001af1edd",7,"Read Recog","INCENSE","SMELL","Study2","F",28,39,"Study","Study Phase","",1026,"",NA
"57b28526f6b9390001af1edd",7,"Read Recog","ATTIRE","CLOTHES","Study2","F",24,38,"Study","Study Phase","",1129,"",NA
"57b28526f6b9390001af1edd",7,"Read Recog","CHISEL","HAMMER","Study2","F",23,29,"Study","Study Phase","",1156,"",NA
"57b28526f6b9390001af1edd",7,"Read Recog","CHERRY","RED","Study2","F",25,18,"Study","Study Phase","",869,"",NA
"57b28526f6b9390001af1edd",7,"Read Recog","SOAP","DRINK","Study2","M",12,8,"Study","Study Phase","",1140,"",NA
"57b28526f6b9390001af1edd",7,"Read Recog","BLAZE","FIRE","Study2","F",26,15,"Study","Study Phase","",928,"",NA
"57b28526f6b9390001af1edd",7,"Read Recog","PUSH","CLUTTER","Study2","U",41,23,"Study","Study Phase","",811,"",NA
"57b28526f6b9390001af1edd",7,"Read Recog","CACTUS","PLANT","Study2","F",21,11,"Study","Study Phase","",1823,"",NA
"57b28526f6b9390001af1edd",7,"Read Recog","BOTH","OUNCE","Study2","U",47,9,"Study","Study Phase","",1163,"",NA
"57b28526f6b9390001af1edd",7,"Read Recog","PANTS","COLLAR","Study2","M",8,41,"Study","Study Phase","",922,"",NA
"57b28526f6b9390001af1edd",7,"Read Recog","DIETARY","SACK","Study2","U",42,14,"Study","Study Phase","",1222,"",NA
"57b28526f6b9390001af1edd",7,"Read Recog","TRAP","CAVE","Study2","M",15,36,"Study","Study Phase","",902,"",NA
"57b28526f6b9390001af1edd",7,"Read Recog","RAKE","SEED","Study2","M",14,48,"Study","Study Phase","",884,"",NA
"57b28526f6b9390001af1edd",7,"Read Recog","LEAGUE","BASEBALL","Study2","F",29,37,"Study","Study Phase","",2118,"",NA
"57b28526f6b9390001af1edd",7,"Read Recog","NURSE","LAWYER","Study2","M",11,31,"Study","Study Phase","",1312,"",NA
"57b28526f6b9390001af1edd",7,"Read Recog","HERD","COW","Study2","F",33,34,"Study","Study Phase","",1014,"",NA
"57b28526f6b9390001af1edd",7,"Read Recog","LEASE","TOIL","Study2","U",46,26,"Study","Study Phase","",1216,"",NA
"57b28526f6b9390001af1edd",7,"Read Recog","SICK","HIDE","Study2","U",45,28,"Study","Study Phase","",1022,"",NA
"57b28526f6b9390001af1edd",7,"Read Recog","CASH","LEG","Study2","U",50,45,"Study","Study Phase","",918,"",NA
"57b28526f6b9390001af1edd",7,"Read Recog","BRIDGE","WATER","Study2","F",35,43,"Study","Study Phase","",1008,"",NA
"58497529bd87380001552f71",7,"Read Recog","BLAZE","FIRE","Study2","F",26,7,"Study","Study Phase","",1590,"",NA
"58497529bd87380001552f71",7,"Read Recog","CACTUS","PLANT","Study2","F",21,35,"Study","Study Phase","",1875,"",NA
"58497529bd87380001552f71",7,"Read Recog","REALITY","ISLAND","Study2","M",9,18,"Study","Study Phase","",1725,"",NA
"58497529bd87380001552f71",7,"Read Recog","EYES","SMELL","Study2","M",10,38,"Study","Study Phase","",1767,"",NA
"58497529bd87380001552f71",7,"Read Recog","BRIDGE","WATER","Study2","F",35,8,"Study","Study Phase","",1612,"",NA
"58497529bd87380001552f71",7,"Read Recog","OVEN","BASKET","Study2","M",16,28,"Study","Study Phase","",2078,"",NA
"58497529bd87380001552f71",7,"Read Recog","STRONG","ACCIDENT","Study2","U",39,16,"Study","Study Phase","",1754,"",NA
"58497529bd87380001552f71",7,"Read Recog","WINDOW","KNOB","Study2","M",19,15,"Study","Study Phase","",1800,"",NA
"58497529bd87380001552f71",7,"Read Recog","RAKE","SEED","Study2","M",14,33,"Study","Study Phase","",1774,"",NA
"58497529bd87380001552f71",7,"Read Recog","DIETARY","SACK","Study2","U",42,20,"Study","Study Phase","",2065,"",NA
"58497529bd87380001552f71",7,"Read Recog","BOTH","OUNCE","Study2","U",47,19,"Study","Study Phase","",2200,"",NA
"58497529bd87380001552f71",7,"Read Recog","DEATH","BUSINESS","Study2","U",44,9,"Study","Study Phase","",1985,"",NA
"58497529bd87380001552f71",7,"Read Recog","ART","WOLF","Study2","U",38,27,"Study","Study Phase","",2047,"",NA
"58497529bd87380001552f71",7,"Read Recog","KING","VASE","Study2","U",36,44,"Study","Study Phase","",2562,"",NA
"58497529bd87380001552f71",7,"Read Recog","TRAP","CAVE","Study2","M",15,29,"Study","Study Phase","",1878,"",NA
"58497529bd87380001552f71",7,"Read Recog","GRILL","THIGH","Study2","M",17,24,"Study","Study Phase","",2321,"",NA
"58497529bd87380001552f71",7,"Read Recog","HERD","COW","Study2","F",33,48,"Study","Study Phase","",1784,"",NA
"58497529bd87380001552f71",7,"Read Recog","CHOP","CUT","Study2","F",22,46,"Study","Study Phase","",2339,"",NA
"58497529bd87380001552f71",7,"Read Recog","ATTIRE","CLOTHES","Study2","F",24,41,"Study","Study Phase","",2183,"",NA
"58497529bd87380001552f71",7,"Read Recog","SOAP","DRINK","Study2","M",12,49,"Study","Study Phase","",1709,"",NA
"58497529bd87380001552f71",7,"Read Recog","HEAVY","FEATHER","Study2","M",13,30,"Study","Study Phase","",2244,"",NA
"58497529bd87380001552f71",7,"Read Recog","BENCH","HORN","Study2","U",43,21,"Study","Study Phase","",1963,"",NA
"58497529bd87380001552f71",7,"Read Recog","LEASE","TOIL","Study2","U",46,12,"Study","Study Phase","",2753,"",NA
"58497529bd87380001552f71",7,"Read Recog","SCHOOL","STOP","Study2","M",7,47,"Study","Study Phase","",2736,"",NA
"58497529bd87380001552f71",7,"Read Recog","MIRROR","CHILDREN","Study2","U",49,43,"Study","Study Phase","",2387,"",NA
"58497529bd87380001552f71",7,"Read Recog","CHISEL","HAMMER","Study2","F",23,51,"Study","Study Phase","",3839,"",NA
"58497529bd87380001552f71",7,"Read Recog","CASH","LEG","Study2","U",50,23,"Study","Study Phase","",2103,"",NA
"58497529bd87380001552f71",7,"Read Recog","FEUD","FIGHT","Study2","F",31,50,"Study","Study Phase","",2918,"",NA
"58497529bd87380001552f71",7,"Read Recog","SUMMER","SNOW","Study2","M",6,13,"Study","Study Phase","",2226,"",NA
"58497529bd87380001552f71",7,"Read Recog","SUGAR","RIDDLE","Study2","U",40,39,"Study","Study Phase","",2274,"",NA
"58497529bd87380001552f71",7,"Read Recog","HAPPY","CAR","Study2","U",37,31,"Study","Study Phase","",2568,"",NA
"58497529bd87380001552f71",7,"Read Recog","INCENSE","SMELL","Study2","F",28,36,"Study","Study Phase","",2134,"",NA
"58497529bd87380001552f71",7,"Read Recog","NURSE","LAWYER","Study2","M",11,42,"Study","Study Phase","",2475,"",NA
"58497529bd87380001552f71",7,"Read Recog","DOCUMENT","PAPER","Study2","F",27,45,"Study","Study Phase","",2196,"",NA
"58497529bd87380001552f71",7,"Read Recog","ARTERY","BRONZE","Study2","U",48,32,"Study","Study Phase","",1952,"",NA
"58497529bd87380001552f71",7,"Read Recog","VALLEY","PEAK","Study2","M",18,26,"Study","Study Phase","",2210,"",NA
"58497529bd87380001552f71",7,"Read Recog","HORNET","STING","Study2","F",30,11,"Study","Study Phase","",2236,"",NA
"58497529bd87380001552f71",7,"Read Recog","PANTS","COLLAR","Study2","M",8,10,"Study","Study Phase","",2503,"",NA
"58497529bd87380001552f71",7,"Read Recog","SICK","HIDE","Study2","U",45,17,"Study","Study Phase","",2478,"",NA
"58497529bd87380001552f71",7,"Read Recog","PUSH","CLUTTER","Study2","U",41,14,"Study","Study Phase","",2470,"",NA
"58497529bd87380001552f71",7,"Read Recog","RAZOR","MUSCLE","Study2","M",20,37,"Study","Study Phase","",2105,"",NA
"58497529bd87380001552f71",7,"Read Recog","LEAGUE","BASEBALL","Study2","F",29,25,"Study","Study Phase","",2356,"",NA
"58497529bd87380001552f71",7,"Read Recog","CHILL","COLD","Study2","F",32,22,"Study","Study Phase","",2363,"",NA
"58497529bd87380001552f71",7,"Read Recog","CHERRY","RED","Study2","F",25,40,"Study","Study Phase","",2361,"",NA
"58497529bd87380001552f71",7,"Read Recog","WASP","BUG","Study2","F",34,34,"Study","Study Phase","",1995,"",NA
"596e1edd39e9d00001b7bb98",7,"Read Recog","NURSE","LAWYER","Study2","M",11,17,"Study","Study Phase","",1012,"",NA
"596e1edd39e9d00001b7bb98",7,"Read Recog","RAZOR","MUSCLE","Study2","M",20,22,"Study","Study Phase","",23098,"",NA
"596e1edd39e9d00001b7bb98",7,"Read Recog","HORNET","STING","Study2","F",30,16,"Study","Study Phase","",1083,"",NA
"596e1edd39e9d00001b7bb98",7,"Read Recog","WASP","BUG","Study2","F",34,29,"Study","Study Phase","",1716,"",NA
"596e1edd39e9d00001b7bb98",7,"Read Recog","INCENSE","SMELL","Study2","F",28,26,"Study","Study Phase","",1897,"",NA
"596e1edd39e9d00001b7bb98",7,"Read Recog","SUMMER","SNOW","Study2","M",6,48,"Study","Study Phase","",3441,"",NA
"596e1edd39e9d00001b7bb98",7,"Read Recog","REALITY","ISLAND","Study2","M",9,10,"Study","Study Phase","",4114,"",NA
"596e1edd39e9d00001b7bb98",7,"Read Recog","SICK","HIDE","Study2","U",45,7,"Study","Study Phase","",7536,"",NA
"596e1edd39e9d00001b7bb98",7,"Read Recog","KING","VASE","Study2","U",36,39,"Study","Study Phase","",7531,"",NA
"596e1edd39e9d00001b7bb98",7,"Read Recog","CHERRY","RED","Study2","F",25,40,"Study","Study Phase","",2926,"",NA
"596e1edd39e9d00001b7bb98",7,"Read Recog","SUGAR","RIDDLE","Study2","U",40,8,"Study","Study Phase","",6597,"",NA
"596e1edd39e9d00001b7bb98",7,"Read Recog","PUSH","CLUTTER","Study2","U",41,28,"Study","Study Phase","",5903,"",NA
"596e1edd39e9d00001b7bb98",7,"Read Recog","SCHOOL","STOP","Study2","M",7,49,"Study","Study Phase","",1596,"",NA
"596e1edd39e9d00001b7bb98",7,"Read Recog","BENCH","HORN","Study2","U",43,41,"Study","Study Phase","",6668,"",NA
"596e1edd39e9d00001b7bb98",7,"Read Recog","BOTH","OUNCE","Study2","U",47,11,"Study","Study Phase","",5278,"",NA
"596e1edd39e9d00001b7bb98",7,"Read Recog","STRONG","ACCIDENT","Study2","U",39,42,"Study","Study Phase","",10467,"",NA
"596e1edd39e9d00001b7bb98",7,"Read Recog","TRAP","CAVE","Study2","M",15,20,"Study","Study Phase","",13546,"",NA
"596e1edd39e9d00001b7bb98",7,"Read Recog","PANTS","COLLAR","Study2","M",8,18,"Study","Study Phase","",3317,"",NA
"596e1edd39e9d00001b7bb98",7,"Read Recog","LEASE","TOIL","Study2","U",46,14,"Study","Study Phase","",2935,"",NA
"596e1edd39e9d00001b7bb98",7,"Read Recog","BRIDGE","WATER","Study2","F",35,50,"Study","Study Phase","",1250,"",NA
"596e1edd39e9d00001b7bb98",7,"Read Recog","CACTUS","PLANT","Study2","F",21,46,"Study","Study Phase","",3814,"",NA
"596e1edd39e9d00001b7bb98",7,"Read Recog","DEATH","BUSINESS","Study2","U",44,36,"Study","Study Phase","",6971,"",NA
"596e1edd39e9d00001b7bb98",7,"Read Recog","ARTERY","BRONZE","Study2","U",48,30,"Study","Study Phase","",9857,"",NA
"596e1edd39e9d00001b7bb98",7,"Read Recog","CHILL","COLD","Study2","F",32,47,"Study","Study Phase","",13905,"",NA
"596e1edd39e9d00001b7bb98",7,"Read Recog","GRILL","THIGH","Study2","M",17,12,"Study","Study Phase","",15533,"",NA
"596e1edd39e9d00001b7bb98",7,"Read Recog","ART","WOLF","Study2","U",38,33,"Study","Study Phase","",10872,"",NA
"596e1edd39e9d00001b7bb98",7,"Read Recog","ATTIRE","CLOTHES","Study2","F",24,24,"Study","Study Phase","",2874,"",NA
"596e1edd39e9d00001b7bb98",7,"Read Recog","SOAP","DRINK","Study2","M",12,51,"Study","Study Phase","",5952,"",NA
"596e1edd39e9d00001b7bb98",7,"Read Recog","HAPPY","CAR","Study2","U",37,32,"Study","Study Phase","",1898,"",NA
"596e1edd39e9d00001b7bb98",7,"Read Recog","CHISEL","HAMMER","Study2","F",23,23,"Study","Study Phase","",6235,"",NA
"596e1edd39e9d00001b7bb98",7,"Read Recog","CHOP","CUT","Study2","F",22,43,"Study","Study Phase","",2659,"",NA
"596e1edd39e9d00001b7bb98",7,"Read Recog","FEUD","FIGHT","Study2","F",31,27,"Study","Study Phase","",4034,"",NA
"596e1edd39e9d00001b7bb98",7,"Read Recog","DIETARY","SACK","Study2","U",42,9,"Study","Study Phase","",3327,"",NA
"596e1edd39e9d00001b7bb98",7,"Read Recog","DOCUMENT","PAPER","Study2","F",27,38,"Study","Study Phase","",1408,"",NA
"596e1edd39e9d00001b7bb98",7,"Read Recog","LEAGUE","BASEBALL","Study2","F",29,13,"Study","Study Phase","",2053,"",NA
"596e1edd39e9d00001b7bb98",7,"Read Recog","CASH","LEG","Study2","U",50,19,"Study","Study Phase","",5886,"",NA
"596e1edd39e9d00001b7bb98",7,"Read Recog","OVEN","BASKET","Study2","M",16,15,"Study","Study Phase","",5382,"",NA
"596e1edd39e9d00001b7bb98",7,"Read Recog","EYES","SMELL","Study2","M",10,31,"Study","Study Phase","",5242,"",NA
"596e1edd39e9d00001b7bb98",7,"Read Recog","WINDOW","KNOB","Study2","M",19,37,"Study","Study Phase","",3180,"",NA
"596e1edd39e9d00001b7bb98",7,"Read Recog","BLAZE","FIRE","Study2","F",26,21,"Study","Study Phase","",1294,"",NA
"596e1edd39e9d00001b7bb98",7,"Read Recog","HERD","COW","Study2","F",33,34,"Study","Study Phase","",2565,"",NA
"596e1edd39e9d00001b7bb98",7,"Read Recog","MIRROR","CHILDREN","Study2","U",49,45,"Study","Study Phase","",3081,"",NA
"596e1edd39e9d00001b7bb98",7,"Read Recog","RAKE","SEED","Study2","M",14,44,"Study","Study Phase","",5197,"",NA
"596e1edd39e9d00001b7bb98",7,"Read Recog","HEAVY","FEATHER","Study2","M",13,35,"Study","Study Phase","",2400,"",NA
"596e1edd39e9d00001b7bb98",7,"Read Recog","VALLEY","PEAK","Study2","M",18,25,"Study","Study Phase","",3527,"",NA
"5b0486dd331e8100018f740d",5,"Read Recog","MIRROR","MAROON","Study1","U",36,10,"Study","Study Phase","",3137,"",NA
"5b0486dd331e8100018f740d",5,"Read Recog","VEHICLE","CHARM","Study1","U",40,35,"Study","Study Phase","",2174,"",NA
"5b0486dd331e8100018f740d",5,"Read Recog","BAT","BOUNCE","Study1","M",12,24,"Study","Study Phase","",3080,"",NA
"5b0486dd331e8100018f740d",5,"Read Recog","SHELL","SHAKE","Study1","U",43,23,"Study","Study Phase","",2195,"",NA
"5b0486dd331e8100018f740d",5,"Read Recog","GIVE","STEAK","Study1","U",38,50,"Study","Study Phase","",2245,"",NA
"5b0486dd331e8100018f740d",5,"Read Recog","TREE","SYRUP","Study1","M",11,9,"Study","Study Phase","",2055,"",NA
"5b0486dd331e8100018f740d",5,"Read Recog","ROOT","PLANT","Study1","F",25,18,"Study","Study Phase","",5670,"",NA
"5b0486dd331e8100018f740d",5,"Read Recog","ORCHID","FLOWER","Study1","F",34,7,"Study","Study Phase","",2972,"",NA
"5b0486dd331e8100018f740d",5,"Read Recog","NAP","SLEEP","Study1","F",29,32,"Study","Study Phase","",2898,"",NA
"5b0486dd331e8100018f740d",5,"Read Recog","LION","STRIPES","Study1","M",6,22,"Study","Study Phase","",2299,"",NA
"5b0486dd331e8100018f740d",5,"Read Recog","MULE","DONKEY","Study1","F",24,17,"Study","Study Phase","",2268,"",NA
"5b0486dd331e8100018f740d",5,"Read Recog","WAGE","MONEY","Study1","F",22,47,"Study","Study Phase","",2235,"",NA
"5b0486dd331e8100018f740d",5,"Read Recog","HORSE","WHEEL","Study1","M",14,15,"Study","Study Phase","",2221,"",NA
"5b0486dd331e8100018f740d",5,"Read Recog","DAY","DARK","Study1","M",18,16,"Study","Study Phase","",3681,"",NA
"5b0486dd331e8100018f740d",5,"Read Recog","TEMPERATURE","MORNING","Study1","U",48,49,"Study","Study Phase","",2220,"",NA
"5b0486dd331e8100018f740d",5,"Read Recog","MAZE","PHONE","Study1","U",42,29,"Study","Study Phase","",2006,"",NA
"5b0486dd331e8100018f740d",5,"Read Recog","SWAN","BIRD","Study1","F",26,21,"Study","Study Phase","",1969,"",NA
"5b0486dd331e8100018f740d",5,"Read Recog","SOON","BELT","Study1","U",46,27,"Study","Study Phase","",2279,"",NA
"5b0486dd331e8100018f740d",5,"Read Recog","WORD","SENTENCE","Study1","F",27,46,"Study","Study Phase","",2965,"",NA
"5b0486dd331e8100018f740d",5,"Read Recog","BEACH","BOX","Study1","M",7,41,"Study","Study Phase","",3667,"",NA
"5b0486dd331e8100018f740d",5,"Read Recog","SCALP","HEAD","Study1","F",23,45,"Study","Study Phase","",2537,"",NA
"5b0486dd331e8100018f740d",5,"Read Recog","STRETCH","CLOTH","Study1","U",37,19,"Study","Study Phase","",1825,"",NA
"5b0486dd331e8100018f740d",5,"Read Recog","WEDDING","FINGER","Study1","M",17,13,"Study","Study Phase","",1843,"",NA
"5b0486dd331e8100018f740d",5,"Read Recog","MEAT","KEYS","Study1","U",41,25,"Study","Study Phase","",7510,"",NA
"5b0486dd331e8100018f740d",5,"Read Recog","MULE","DONKEY","Study1","F",30,36,"Study","Study Phase","",1782,"",NA
"5b0486dd331e8100018f740d",5,"Read Recog","HYGIENE","CLEAN","Study1","F",28,43,"Study","Study Phase","",1660,"",NA
"5b0486dd331e8100018f740d",5,"Read Recog","CRACKLE","ELECTION","Study1","U",39,34,"Study","Study Phase","",1462,"",NA
"5b0486dd331e8100018f740d",5,"Read Recog","TOOTH","HAIR","Study1","M",19,44,"Study","Study Phase","",1728,"",NA
"5b0486dd331e8100018f740d",5,"Read Recog","LITTER","TRASH","Study1","F",21,51,"Study","Study Phase","",1757,"",NA
"5b0486dd331e8100018f740d",5,"Read Recog","CAKE","HAND","Study1","U",49,30,"Study","Study Phase","",2428,"",NA
"5b0486dd331e8100018f740d",5,"Read Recog","CREDIT","CARD","Study1","F",33,40,"Study","Study Phase","",1406,"",NA
"5b0486dd331e8100018f740d",5,"Read Recog","ROUGH","SILK","Study1","M",10,8,"Study","Study Phase","",1428,"",NA
"5b0486dd331e8100018f740d",5,"Read Recog","SIP","DRINK","Study1","F",32,12,"Study","Study Phase","",1655,"",NA
"5b0486dd331e8100018f740d",5,"Read Recog","FUZZY","BANG","Study1","U",50,33,"Study","Study Phase","",1491,"",NA
"5b0486dd331e8100018f740d",5,"Read Recog","SIGN","TICK","Study1","U",47,38,"Study","Study Phase","",1428,"",NA
"5b0486dd331e8100018f740d",5,"Read Recog","AFFECTION","LOVE","Study1","F",31,26,"Study","Study Phase","",1497,"",NA
"5b0486dd331e8100018f740d",5,"Read Recog","TUNA","FISH","Study1","F",35,20,"Study","Study Phase","",1417,"",NA
"5b0486dd331e8100018f740d",5,"Read Recog","BIRTHDAY","PIE","Study1","M",9,39,"Study","Study Phase","",1496,"",NA
"5b0486dd331e8100018f740d",5,"Read Recog","CIRCLE","DANCE","Study1","M",13,48,"Study","Study Phase","",1560,"",NA
"5b0486dd331e8100018f740d",5,"Read Recog","WAR","QUIET","Study1","M",8,11,"Study","Study Phase","",1505,"",NA
"5b0486dd331e8100018f740d",5,"Read Recog","KEYS","ROD","Study1","U",45,28,"Study","Study Phase","",1500,"",NA
"5b0486dd331e8100018f740d",5,"Read Recog","HARD","COTTON","Study1","M",20,14,"Study","Study Phase","",1547,"",NA
"5b0486dd331e8100018f740d",5,"Read Recog","CEILING","CARPET","Study1","M",15,31,"Study","Study Phase","",1539,"",NA
"5b0486dd331e8100018f740d",5,"Read Recog","LISTEN","FICTION","Study1","U",44,42,"Study","Study Phase","",1459,"",NA
"5b0486dd331e8100018f740d",5,"Read Recog","CRY","BOTTLE","Study1","M",16,37,"Study","Study Phase","",1402,"",NA
"5b684ef482d9db000118fc0a",5,"Read Recog","MEAT","KEYS","Study1","U",41,49,"Study","Study Phase","",988,"",NA
"5b684ef482d9db000118fc0a",5,"Read Recog","HYGIENE","CLEAN","Study1","F",28,50,"Study","Study Phase","",3069,"",NA
"5b684ef482d9db000118fc0a",5,"Read Recog","WORD","SENTENCE","Study1","F",27,33,"Study","Study Phase","",1089,"",NA
"5b684ef482d9db000118fc0a",5,"Read Recog","MIRROR","MAROON","Study1","U",36,26,"Study","Study Phase","",2132,"",NA
"5b684ef482d9db000118fc0a",5,"Read Recog","KEYS","ROD","Study1","U",45,16,"Study","Study Phase","",6009,"",NA
"5b684ef482d9db000118fc0a",5,"Read Recog","CRACKLE","ELECTION","Study1","U",39,42,"Study","Study Phase","",3245,"",NA
"5b684ef482d9db000118fc0a",5,"Read Recog","ROUGH","SILK","Study1","M",10,22,"Study","Study Phase","",1579,"",NA
"5b684ef482d9db000118fc0a",5,"Read Recog","GIVE","STEAK","Study1","U",38,40,"Study","Study Phase","",2360,"",NA
"5b684ef482d9db000118fc0a",5,"Read Recog","CREDIT","CARD","Study1","F",33,8,"Study","Study Phase","",1230,"",NA
"5b684ef482d9db000118fc0a",5,"Read Recog","TOOTH","HAIR","Study1","M",19,13,"Study","Study Phase","",2296,"",NA
"5b684ef482d9db000118fc0a",5,"Read Recog","SWAN","BIRD","Study1","F",26,37,"Study","Study Phase","",1396,"",NA
"5b684ef482d9db000118fc0a",5,"Read Recog","TEMPERATURE","MORNING","Study1","U",48,29,"Study","Study Phase","",1729,"",NA
"5b684ef482d9db000118fc0a",5,"Read Recog","FUZZY","BANG","Study1","U",50,11,"Study","Study Phase","",2614,"",NA
"5b684ef482d9db000118fc0a",5,"Read Recog","CAKE","HAND","Study1","U",49,32,"Study","Study Phase","",1835,"",NA
"5b684ef482d9db000118fc0a",5,"Read Recog","VEHICLE","CHARM","Study1","U",40,36,"Study","Study Phase","",2178,"",NA
"5b684ef482d9db000118fc0a",5,"Read Recog","SHELL","SHAKE","Study1","U",43,45,"Study","Study Phase","",2225,"",NA
"5b684ef482d9db000118fc0a",5,"Read Recog","SOON","BELT","Study1","U",46,14,"Study","Study Phase","",3106,"",NA
"5b684ef482d9db000118fc0a",5,"Read Recog","AFFECTION","LOVE","Study1","F",31,10,"Study","Study Phase","",1319,"",NA
"5b684ef482d9db000118fc0a",5,"Read Recog","ROOT","PLANT","Study1","F",25,34,"Study","Study Phase","",1738,"",NA
"5b684ef482d9db000118fc0a",5,"Read Recog","SIGN","TICK","Study1","U",47,7,"Study","Study Phase","",2158,"",NA
"5b684ef482d9db000118fc0a",5,"Read Recog","HARD","COTTON","Study1","M",20,48,"Study","Study Phase","",1591,"",NA
"5b684ef482d9db000118fc0a",5,"Read Recog","TREE","SYRUP","Study1","M",11,27,"Study","Study Phase","",3418,"",NA
"5b684ef482d9db000118fc0a",5,"Read Recog","CRY","BOTTLE","Study1","M",16,18,"Study","Study Phase","",2485,"",NA
"5b684ef482d9db000118fc0a",5,"Read Recog","STRETCH","CLOTH","Study1","U",37,46,"Study","Study Phase","",3331,"",NA
"5b684ef482d9db000118fc0a",5,"Read Recog","ORCHID","FLOWER","Study1","F",34,47,"Study","Study Phase","",1211,"",NA
"5b684ef482d9db000118fc0a",5,"Read Recog","LITTER","TRASH","Study1","F",21,44,"Study","Study Phase","",2281,"",NA
"5b684ef482d9db000118fc0a",5,"Read Recog","WEDDING","FINGER","Study1","M",17,51,"Study","Study Phase","",3348,"",NA
"5b684ef482d9db000118fc0a",5,"Read Recog","SCALP","HEAD","Study1","F",23,12,"Study","Study Phase","",1197,"",NA
"5b684ef482d9db000118fc0a",5,"Read Recog","NAP","SLEEP","Study1","F",29,21,"Study","Study Phase","",3451,"",NA
"5b684ef482d9db000118fc0a",5,"Read Recog","BIRTHDAY","PIE","Study1","M",9,43,"Study","Study Phase","",1440,"",NA
"5b684ef482d9db000118fc0a",5,"Read Recog","CIRCLE","DANCE","Study1","M",13,25,"Study","Study Phase","",2982,"",NA
"5b684ef482d9db000118fc0a",5,"Read Recog","LION","STRIPES","Study1","M",6,9,"Study","Study Phase","",1454,"",NA
"5b684ef482d9db000118fc0a",5,"Read Recog","MAZE","PHONE","Study1","U",42,38,"Study","Study Phase","",2930,"",NA
"5b684ef482d9db000118fc0a",5,"Read Recog","DAY","DARK","Study1","M",18,31,"Study","Study Phase","",3663,"",NA
"5b684ef482d9db000118fc0a",5,"Read Recog","WAGE","MONEY","Study1","F",22,19,"Study","Study Phase","",3547,"",NA
"5b684ef482d9db000118fc0a",5,"Read Recog","BEACH","BOX","Study1","M",7,17,"Study","Study Phase","",2612,"",NA
"5b684ef482d9db000118fc0a",5,"Read Recog","WAR","QUIET","Study1","M",8,39,"Study","Study Phase","",2009,"",NA
"5b684ef482d9db000118fc0a",5,"Read Recog","BAT","BOUNCE","Study1","M",12,20,"Study","Study Phase","",3555,"",NA
"5b684ef482d9db000118fc0a",5,"Read Recog","SIP","DRINK","Study1","F",32,23,"Study","Study Phase","",1931,"",NA
"5b684ef482d9db000118fc0a",5,"Read Recog","MULE","DONKEY","Study1","F",24,15,"Study","Study Phase","",2453,"",NA
"5b684ef482d9db000118fc0a",5,"Read Recog","TUNA","FISH","Study1","F",35,28,"Study","Study Phase","",914,"",NA
"5b684ef482d9db000118fc0a",5,"Read Recog","HORSE","WHEEL","Study1","M",14,35,"Study","Study Phase","",733,"",NA
"5b684ef482d9db000118fc0a",5,"Read Recog","CEILING","CARPET","Study1","M",15,24,"Study","Study Phase","",2387,"",NA
"5b684ef482d9db000118fc0a",5,"Read Recog","LISTEN","FICTION","Study1","U",44,30,"Study","Study Phase","",6813,"",NA
"5b684ef482d9db000118fc0a",5,"Read Recog","MULE","DONKEY","Study1","F",30,41,"Study","Study Phase","",1172,"",NA
"5b6ffc9399982e000145c789",7,"Read Recog","OVEN","BASKET","Study2","M",16,14,"Study","Study Phase","",1900,"",NA
"5b6ffc9399982e000145c789",7,"Read Recog","CASH","LEG","Study2","U",50,43,"Study","Study Phase","",2050,"",NA
"5b6ffc9399982e000145c789",7,"Read Recog","ARTERY","BRONZE","Study2","U",48,37,"Study","Study Phase","",2749,"",NA
"5b6ffc9399982e000145c789",7,"Read Recog","CHOP","CUT","Study2","F",22,46,"Study","Study Phase","",1211,"",NA
"5b6ffc9399982e000145c789",7,"Read Recog","VALLEY","PEAK","Study2","M",18,28,"Study","Study Phase","",16119,"",NA
"5b6ffc9399982e000145c789",7,"Read Recog","HORNET","STING","Study2","F",30,42,"Study","Study Phase","",1600,"",NA
"5b6ffc9399982e000145c789",7,"Read Recog","MIRROR","CHILDREN","Study2","U",49,25,"Study","Study Phase","",1244,"",NA
"5b6ffc9399982e000145c789",7,"Read Recog","NURSE","LAWYER","Study2","M",11,11,"Study","Study Phase","",1112,"",NA
"5b6ffc9399982e000145c789",7,"Read Recog","SOAP","DRINK","Study2","M",12,31,"Study","Study Phase","",1229,"",NA
"5b6ffc9399982e000145c789",7,"Read Recog","SUGAR","RIDDLE","Study2","U",40,24,"Study","Study Phase","",1476,"",NA
"5b6ffc9399982e000145c789",7,"Read Recog","HAPPY","CAR","Study2","U",37,18,"Study","Study Phase","",1217,"",NA
"5b6ffc9399982e000145c789",7,"Read Recog","BOTH","OUNCE","Study2","U",47,35,"Study","Study Phase","",3906,"",NA
"5b6ffc9399982e000145c789",7,"Read Recog","DIETARY","SACK","Study2","U",42,9,"Study","Study Phase","",1502,"",NA
"5b6ffc9399982e000145c789",7,"Read Recog","WASP","BUG","Study2","F",34,36,"Study","Study Phase","",903,"",NA
"5b6ffc9399982e000145c789",7,"Read Recog","BLAZE","FIRE","Study2","F",26,29,"Study","Study Phase","",2342,"",NA
"5b6ffc9399982e000145c789",7,"Read Recog","LEASE","TOIL","Study2","U",46,17,"Study","Study Phase","",3322,"",NA
"5b6ffc9399982e000145c789",7,"Read Recog","PUSH","CLUTTER","Study2","U",41,20,"Study","Study Phase","",2040,"",NA
"5b6ffc9399982e000145c789",7,"Read Recog","BRIDGE","WATER","Study2","F",35,16,"Study","Study Phase","",1573,"",NA
"5b6ffc9399982e000145c789",7,"Read Recog","ATTIRE","CLOTHES","Study2","F",24,45,"Study","Study Phase","",1313,"",NA
"5b6ffc9399982e000145c789",7,"Read Recog","PANTS","COLLAR","Study2","M",8,50,"Study","Study Phase","",1465,"",NA
"5b6ffc9399982e000145c789",7,"Read Recog","SUMMER","SNOW","Study2","M",6,47,"Study","Study Phase","",1693,"",NA
"5b6ffc9399982e000145c789",7,"Read Recog","CHERRY","RED","Study2","F",25,19,"Study","Study Phase","",1252,"",NA
"5b6ffc9399982e000145c789",7,"Read Recog","SCHOOL","STOP","Study2","M",7,44,"Study","Study Phase","",1204,"",NA
"5b6ffc9399982e000145c789",7,"Read Recog","INCENSE","SMELL","Study2","F",28,7,"Study","Study Phase","",1003,"",NA
"5b6ffc9399982e000145c789",7,"Read Recog","RAKE","SEED","Study2","M",14,22,"Study","Study Phase","",2550,"",NA
"5b6ffc9399982e000145c789",7,"Read Recog","GRILL","THIGH","Study2","M",17,23,"Study","Study Phase","",1360,"",NA
"5b6ffc9399982e000145c789",7,"Read Recog","DOCUMENT","PAPER","Study2","F",27,15,"Study","Study Phase","",766,"",NA
"5b6ffc9399982e000145c789",7,"Read Recog","TRAP","CAVE","Study2","M",15,48,"Study","Study Phase","",1092,"",NA
"5b6ffc9399982e000145c789",7,"Read Recog","HEAVY","FEATHER","Study2","M",13,8,"Study","Study Phase","",988,"",NA
"5b6ffc9399982e000145c789",7,"Read Recog","KING","VASE","Study2","U",36,38,"Study","Study Phase","",1872,"",NA
"5b6ffc9399982e000145c789",7,"Read Recog","DEATH","BUSINESS","Study2","U",44,40,"Study","Study Phase","",1442,"",NA
"5b6ffc9399982e000145c789",7,"Read Recog","STRONG","ACCIDENT","Study2","U",39,26,"Study","Study Phase","",2520,"",NA
"5b6ffc9399982e000145c789",7,"Read Recog","CACTUS","PLANT","Study2","F",21,33,"Study","Study Phase","",998,"",NA
"5b6ffc9399982e000145c789",7,"Read Recog","CHILL","COLD","Study2","F",32,41,"Study","Study Phase","",1094,"",NA
"5b6ffc9399982e000145c789",7,"Read Recog","CHISEL","HAMMER","Study2","F",23,49,"Study","Study Phase","",1996,"",NA
"5b6ffc9399982e000145c789",7,"Read Recog","LEAGUE","BASEBALL","Study2","F",29,51,"Study","Study Phase","",970,"",NA
"5b6ffc9399982e000145c789",7,"Read Recog","HERD","COW","Study2","F",33,27,"Study","Study Phase","",1033,"",NA
"5b6ffc9399982e000145c789",7,"Read Recog","FEUD","FIGHT","Study2","F",31,34,"Study","Study Phase","",2016,"",NA
"5b6ffc9399982e000145c789",7,"Read Recog","WINDOW","KNOB","Study2","M",19,13,"Study","Study Phase","",1411,"",NA
"5b6ffc9399982e000145c789",7,"Read Recog","SICK","HIDE","Study2","U",45,21,"Study","Study Phase","",1749,"",NA
"5b6ffc9399982e000145c789",7,"Read Recog","RAZOR","MUSCLE","Study2","M",20,32,"Study","Study Phase","",3013,"",NA
"5b6ffc9399982e000145c789",7,"Read Recog","ART","WOLF","Study2","U",38,10,"Study","Study Phase","",1002,"",NA
"5b6ffc9399982e000145c789",7,"Read Recog","REALITY","ISLAND","Study2","M",9,30,"Study","Study Phase","",1460,"",NA
"5b6ffc9399982e000145c789",7,"Read Recog","BENCH","HORN","Study2","U",43,39,"Study","Study Phase","",1244,"",NA
"5b6ffc9399982e000145c789",7,"Read Recog","EYES","SMELL","Study2","M",10,12,"Study","Study Phase","",1631,"",NA
"5b88002a7bb9e90001f0703f",5,"Read Recog","DAY","DARK","Study1","M",18,51,"Study","Study Phase","",1578,"",NA
"5b88002a7bb9e90001f0703f",5,"Read Recog","GIVE","STEAK","Study1","U",38,46,"Study","Study Phase","",2308,"",NA
"5b88002a7bb9e90001f0703f",5,"Read Recog","LION","STRIPES","Study1","M",6,7,"Study","Study Phase","",1874,"",NA
"5b88002a7bb9e90001f0703f",5,"Read Recog","WORD","SENTENCE","Study1","F",27,49,"Study","Study Phase","",1376,"",NA
"5b88002a7bb9e90001f0703f",5,"Read Recog","TEMPERATURE","MORNING","Study1","U",48,27,"Study","Study Phase","",1915,"",NA
"5b88002a7bb9e90001f0703f",5,"Read Recog","SHELL","SHAKE","Study1","U",43,23,"Study","Study Phase","",2433,"",NA
"5b88002a7bb9e90001f0703f",5,"Read Recog","TUNA","FISH","Study1","F",35,22,"Study","Study Phase","",1135,"",NA
"5b88002a7bb9e90001f0703f",5,"Read Recog","TREE","SYRUP","Study1","M",11,31,"Study","Study Phase","",1900,"",NA
"5b88002a7bb9e90001f0703f",5,"Read Recog","CREDIT","CARD","Study1","F",33,45,"Study","Study Phase","",1362,"",NA
"5b88002a7bb9e90001f0703f",5,"Read Recog","CRACKLE","ELECTION","Study1","U",39,37,"Study","Study Phase","",1995,"",NA
"5b88002a7bb9e90001f0703f",5,"Read Recog","ROOT","PLANT","Study1","F",25,40,"Study","Study Phase","",1516,"",NA
"5b88002a7bb9e90001f0703f",5,"Read Recog","ORCHID","FLOWER","Study1","F",34,41,"Study","Study Phase","",1739,"",NA
"5b88002a7bb9e90001f0703f",5,"Read Recog","BIRTHDAY","PIE","Study1","M",9,14,"Study","Study Phase","",1601,"",NA
"5b88002a7bb9e90001f0703f",5,"Read Recog","KEYS","ROD","Study1","U",45,25,"Study","Study Phase","",2024,"",NA
"5b88002a7bb9e90001f0703f",5,"Read Recog","STRETCH","CLOTH","Study1","U",37,36,"Study","Study Phase","",1874,"",NA
"5b88002a7bb9e90001f0703f",5,"Read Recog","SCALP","HEAD","Study1","F",23,20,"Study","Study Phase","",2137,"",NA
"5b88002a7bb9e90001f0703f",5,"Read Recog","BEACH","BOX","Study1","M",7,13,"Study","Study Phase","",2542,"",NA
"5b88002a7bb9e90001f0703f",5,"Read Recog","CIRCLE","DANCE","Study1","M",13,38,"Study","Study Phase","",2134,"",NA
"5b88002a7bb9e90001f0703f",5,"Read Recog","SIGN","TICK","Study1","U",47,11,"Study","Study Phase","",1970,"",NA
"5b88002a7bb9e90001f0703f",5,"Read Recog","FUZZY","BANG","Study1","U",50,42,"Study","Study Phase","",1862,"",NA
"5b88002a7bb9e90001f0703f",5,"Read Recog","CEILING","CARPET","Study1","M",15,19,"Study","Study Phase","",1951,"",NA
"5b88002a7bb9e90001f0703f",5,"Read Recog","HARD","COTTON","Study1","M",20,35,"Study","Study Phase","",1498,"",NA
"5b88002a7bb9e90001f0703f",5,"Read Recog","NAP","SLEEP","Study1","F",29,16,"Study","Study Phase","",1419,"",NA
"5b88002a7bb9e90001f0703f",5,"Read Recog","AFFECTION","LOVE","Study1","F",31,30,"Study","Study Phase","",1557,"",NA
"5b88002a7bb9e90001f0703f",5,"Read Recog","MAZE","PHONE","Study1","U",42,34,"Study","Study Phase","",1646,"",NA
"5b88002a7bb9e90001f0703f",5,"Read Recog","MEAT","KEYS","Study1","U",41,17,"Study","Study Phase","",2154,"",NA
"5b88002a7bb9e90001f0703f",5,"Read Recog","WAR","QUIET","Study1","M",8,47,"Study","Study Phase","",1540,"",NA
"5b88002a7bb9e90001f0703f",5,"Read Recog","VEHICLE","CHARM","Study1","U",40,43,"Study","Study Phase","",1725,"",NA
"5b88002a7bb9e90001f0703f",5,"Read Recog","WAGE","MONEY","Study1","F",22,12,"Study","Study Phase","",1673,"",NA
"5b88002a7bb9e90001f0703f",5,"Read Recog","CRY","BOTTLE","Study1","M",16,10,"Study","Study Phase","",1578,"",NA
"5b88002a7bb9e90001f0703f",5,"Read Recog","MIRROR","MAROON","Study1","U",36,33,"Study","Study Phase","",1654,"",NA
"5b88002a7bb9e90001f0703f",5,"Read Recog","BAT","BOUNCE","Study1","M",12,24,"Study","Study Phase","",1636,"",NA
"5b88002a7bb9e90001f0703f",5,"Read Recog","LISTEN","FICTION","Study1","U",44,9,"Study","Study Phase","",1759,"",NA
"5b88002a7bb9e90001f0703f",5,"Read Recog","LITTER","TRASH","Study1","F",21,8,"Study","Study Phase","",1532,"",NA
"5b88002a7bb9e90001f0703f",5,"Read Recog","TOOTH","HAIR","Study1","M",19,48,"Study","Study Phase","",1614,"",NA
"5b88002a7bb9e90001f0703f",5,"Read Recog","HORSE","WHEEL","Study1","M",14,15,"Study","Study Phase","",1474,"",NA
"5b88002a7bb9e90001f0703f",5,"Read Recog","ROUGH","SILK","Study1","M",10,50,"Study","Study Phase","",1316,"",NA
"5b88002a7bb9e90001f0703f",5,"Read Recog","WEDDING","FINGER","Study1","M",17,29,"Study","Study Phase","",1438,"",NA
"5b88002a7bb9e90001f0703f",5,"Read Recog","MULE","DONKEY","Study1","F",24,21,"Study","Study Phase","",1335,"",NA
"5b88002a7bb9e90001f0703f",5,"Read Recog","SOON","BELT","Study1","U",46,26,"Study","Study Phase","",1749,"",NA
"5b88002a7bb9e90001f0703f",5,"Read Recog","HYGIENE","CLEAN","Study1","F",28,28,"Study","Study Phase","",1403,"",NA
"5b88002a7bb9e90001f0703f",5,"Read Recog","CAKE","HAND","Study1","U",49,44,"Study","Study Phase","",1664,"",NA
"5b88002a7bb9e90001f0703f",5,"Read Recog","MULE","DONKEY","Study1","F",30,32,"Study","Study Phase","",1566,"",NA
"5b88002a7bb9e90001f0703f",5,"Read Recog","SIP","DRINK","Study1","F",32,18,"Study","Study Phase","",1682,"",NA
"5b88002a7bb9e90001f0703f",5,"Read Recog","SWAN","BIRD","Study1","F",26,39,"Study","Study Phase","",1376,"",NA
"5c5cad876d0fe50001f0390c",7,"Read Recog","CASH","LEG","Study2","U",50,42,"Study","Study Phase","",7557,"",NA
"5c5cad876d0fe50001f0390c",7,"Read Recog","BOTH","OUNCE","Study2","U",47,34,"Study","Study Phase","",11112,"",NA
"5c5cad876d0fe50001f0390c",7,"Read Recog","DEATH","BUSINESS","Study2","U",44,19,"Study","Study Phase","",4136,"",NA
"5c5cad876d0fe50001f0390c",7,"Read Recog","LEASE","TOIL","Study2","U",46,50,"Study","Study Phase","",5656,"",NA
"5c5cad876d0fe50001f0390c",7,"Read Recog","CACTUS","PLANT","Study2","F",21,37,"Study","Study Phase","",1714,"",NA
"5c5cad876d0fe50001f0390c",7,"Read Recog","DIETARY","SACK","Study2","U",42,30,"Study","Study Phase","",5792,"",NA
"5c5cad876d0fe50001f0390c",7,"Read Recog","STRONG","ACCIDENT","Study2","U",39,41,"Study","Study Phase","",6693,"",NA
"5c5cad876d0fe50001f0390c",7,"Read Recog","PUSH","CLUTTER","Study2","U",41,40,"Study","Study Phase","",6582,"",NA
"5c5cad876d0fe50001f0390c",7,"Read Recog","CHERRY","RED","Study2","F",25,22,"Study","Study Phase","",1397,"",NA
"5c5cad876d0fe50001f0390c",7,"Read Recog","HEAVY","FEATHER","Study2","M",13,11,"Study","Study Phase","",1749,"",NA
"5c5cad876d0fe50001f0390c",7,"Read Recog","BLAZE","FIRE","Study2","F",26,25,"Study","Study Phase","",1921,"",NA
"5c5cad876d0fe50001f0390c",7,"Read Recog","PANTS","COLLAR","Study2","M",8,16,"Study","Study Phase","",3332,"",NA
"5c5cad876d0fe50001f0390c",7,"Read Recog","SICK","HIDE","Study2","U",45,27,"Study","Study Phase","",3127,"",NA
"5c5cad876d0fe50001f0390c",7,"Read Recog","HERD","COW","Study2","F",33,14,"Study","Study Phase","",2139,"",NA
"5c5cad876d0fe50001f0390c",7,"Read Recog","RAKE","SEED","Study2","M",14,10,"Study","Study Phase","",2350,"",NA
"5c5cad876d0fe50001f0390c",7,"Read Recog","NURSE","LAWYER","Study2","M",11,31,"Study","Study Phase","",4372,"",NA
"5c5cad876d0fe50001f0390c",7,"Read Recog","VALLEY","PEAK","Study2","M",18,28,"Study","Study Phase","",2136,"",NA
"5c5cad876d0fe50001f0390c",7,"Read Recog","SOAP","DRINK","Study2","M",12,9,"Study","Study Phase","",5025,"",NA
"5c5cad876d0fe50001f0390c",7,"Read Recog","CHILL","COLD","Study2","F",32,20,"Study","Study Phase","",2292,"",NA
"5c5cad876d0fe50001f0390c",7,"Read Recog","ATTIRE","CLOTHES","Study2","F",24,35,"Study","Study Phase","",2498,"",NA
"5c5cad876d0fe50001f0390c",7,"Read Recog","GRILL","THIGH","Study2","M",17,23,"Study","Study Phase","",6103,"",NA
"5c5cad876d0fe50001f0390c",7,"Read Recog","SUMMER","SNOW","Study2","M",6,43,"Study","Study Phase","",1991,"",NA
"5c5cad876d0fe50001f0390c",7,"Read Recog","WINDOW","KNOB","Study2","M",19,33,"Study","Study Phase","",3793,"",NA
"5c5cad876d0fe50001f0390c",7,"Read Recog","MIRROR","CHILDREN","Study2","U",49,24,"Study","Study Phase","",4387,"",NA
"5c5cad876d0fe50001f0390c",7,"Read Recog","SUGAR","RIDDLE","Study2","U",40,21,"Study","Study Phase","",6464,"",NA
"5c5cad876d0fe50001f0390c",7,"Read Recog","BRIDGE","WATER","Study2","F",35,8,"Study","Study Phase","",1913,"",NA
"5c5cad876d0fe50001f0390c",7,"Read Recog","CHISEL","HAMMER","Study2","F",23,51,"Study","Study Phase","",2005,"",NA
"5c5cad876d0fe50001f0390c",7,"Read Recog","EYES","SMELL","Study2","M",10,12,"Study","Study Phase","",3846,"",NA
"5c5cad876d0fe50001f0390c",7,"Read Recog","LEAGUE","BASEBALL","Study2","F",29,48,"Study","Study Phase","",2661,"",NA
"5c5cad876d0fe50001f0390c",7,"Read Recog","OVEN","BASKET","Study2","M",16,47,"Study","Study Phase","",6662,"",NA
"5c5cad876d0fe50001f0390c",7,"Read Recog","HAPPY","CAR","Study2","U",37,45,"Study","Study Phase","",4125,"",NA
"5c5cad876d0fe50001f0390c",7,"Read Recog","ART","WOLF","Study2","U",38,46,"Study","Study Phase","",4491,"",NA
"5c5cad876d0fe50001f0390c",7,"Read Recog","INCENSE","SMELL","Study2","F",28,29,"Study","Study Phase","",2227,"",NA
"5c5cad876d0fe50001f0390c",7,"Read Recog","HORNET","STING","Study2","F",30,18,"Study","Study Phase","",1794,"",NA
"5c5cad876d0fe50001f0390c",7,"Read Recog","ARTERY","BRONZE","Study2","U",48,38,"Study","Study Phase","",4443,"",NA
"5c5cad876d0fe50001f0390c",7,"Read Recog","REALITY","ISLAND","Study2","M",9,49,"Study","Study Phase","",2594,"",NA
"5c5cad876d0fe50001f0390c",7,"Read Recog","DOCUMENT","PAPER","Study2","F",27,7,"Study","Study Phase","",2069,"",NA
"5c5cad876d0fe50001f0390c",7,"Read Recog","SCHOOL","STOP","Study2","M",7,15,"Study","Study Phase","",2194,"",NA
"5c5cad876d0fe50001f0390c",7,"Read Recog","RAZOR","MUSCLE","Study2","M",20,44,"Study","Study Phase","",4782,"",NA
"5c5cad876d0fe50001f0390c",7,"Read Recog","TRAP","CAVE","Study2","M",15,13,"Study","Study Phase","",2113,"",NA
"5c5cad876d0fe50001f0390c",7,"Read Recog","KING","VASE","Study2","U",36,36,"Study","Study Phase","",2323,"",NA
"5c5cad876d0fe50001f0390c",7,"Read Recog","FEUD","FIGHT","Study2","F",31,26,"Study","Study Phase","",2533,"",NA
"5c5cad876d0fe50001f0390c",7,"Read Recog","WASP","BUG","Study2","F",34,32,"Study","Study Phase","",3918,"",NA
"5c5cad876d0fe50001f0390c",7,"Read Recog","BENCH","HORN","Study2","U",43,39,"Study","Study Phase","",16980,"",NA
"5c5cad876d0fe50001f0390c",7,"Read Recog","CHOP","CUT","Study2","F",22,17,"Study","Study Phase","",1758,"",NA
"5c7eb988ac63960015004d03",5,"Read Recog","MULE","DONKEY","Study1","F",30,14,"Study","Study Phase","",2350,"",NA
"5c7eb988ac63960015004d03",5,"Read Recog","ROUGH","SILK","Study1","M",10,16,"Study","Study Phase","",2349,"",NA
"5c7eb988ac63960015004d03",5,"Read Recog","WEDDING","FINGER","Study1","M",17,12,"Study","Study Phase","",1566,"",NA
"5c7eb988ac63960015004d03",5,"Read Recog","HYGIENE","CLEAN","Study1","F",28,47,"Study","Study Phase","",1464,"",NA
"5c7eb988ac63960015004d03",5,"Read Recog","CRY","BOTTLE","Study1","M",16,15,"Study","Study Phase","",1894,"",NA
"5c7eb988ac63960015004d03",5,"Read Recog","HORSE","WHEEL","Study1","M",14,27,"Study","Study Phase","",1533,"",NA
"5c7eb988ac63960015004d03",5,"Read Recog","CREDIT","CARD","Study1","F",33,28,"Study","Study Phase","",1138,"",NA
"5c7eb988ac63960015004d03",5,"Read Recog","MEAT","KEYS","Study1","U",41,40,"Study","Study Phase","",1426,"",NA
"5c7eb988ac63960015004d03",5,"Read Recog","ORCHID","FLOWER","Study1","F",34,33,"Study","Study Phase","",1458,"",NA
"5c7eb988ac63960015004d03",5,"Read Recog","WAGE","MONEY","Study1","F",22,51,"Study","Study Phase","",1505,"",NA
"5c7eb988ac63960015004d03",5,"Read Recog","SWAN","BIRD","Study1","F",26,21,"Study","Study Phase","",1647,"",NA
"5c7eb988ac63960015004d03",5,"Read Recog","CRACKLE","ELECTION","Study1","U",39,41,"Study","Study Phase","",1646,"",NA
"5c7eb988ac63960015004d03",5,"Read Recog","CAKE","HAND","Study1","U",49,30,"Study","Study Phase","",1344,"",NA
"5c7eb988ac63960015004d03",5,"Read Recog","WAR","QUIET","Study1","M",8,11,"Study","Study Phase","",1194,"",NA
"5c7eb988ac63960015004d03",5,"Read Recog","SOON","BELT","Study1","U",46,17,"Study","Study Phase","",1329,"",NA
"5c7eb988ac63960015004d03",5,"Read Recog","GIVE","STEAK","Study1","U",38,36,"Study","Study Phase","",1284,"",NA
"5c7eb988ac63960015004d03",5,"Read Recog","MULE","DONKEY","Study1","F",24,32,"Study","Study Phase","",1240,"",NA
"5c7eb988ac63960015004d03",5,"Read Recog","TEMPERATURE","MORNING","Study1","U",48,26,"Study","Study Phase","",2042,"",NA
"5c7eb988ac63960015004d03",5,"Read Recog","LITTER","TRASH","Study1","F",21,18,"Study","Study Phase","",1669,"",NA
"5c7eb988ac63960015004d03",5,"Read Recog","MIRROR","MAROON","Study1","U",36,48,"Study","Study Phase","",1615,"",NA
"5c7eb988ac63960015004d03",5,"Read Recog","TREE","SYRUP","Study1","M",11,22,"Study","Study Phase","",1515,"",NA
"5c7eb988ac63960015004d03",5,"Read Recog","BAT","BOUNCE","Study1","M",12,10,"Study","Study Phase","",1217,"",NA
"5c7eb988ac63960015004d03",5,"Read Recog","AFFECTION","LOVE","Study1","F",31,45,"Study","Study Phase","",1507,"",NA
"5c7eb988ac63960015004d03",5,"Read Recog","FUZZY","BANG","Study1","U",50,25,"Study","Study Phase","",1616,"",NA
"5c7eb988ac63960015004d03",5,"Read Recog","KEYS","ROD","Study1","U",45,7,"Study","Study Phase","",1187,"",NA
"5c7eb988ac63960015004d03",5,"Read Recog","HARD","COTTON","Study1","M",20,13,"Study","Study Phase","",1168,"",NA
"5c7eb988ac63960015004d03",5,"Read Recog","BEACH","BOX","Study1","M",7,9,"Study","Study Phase","",1478,"",NA
"5c7eb988ac63960015004d03",5,"Read Recog","STRETCH","CLOTH","Study1","U",37,46,"Study","Study Phase","",1238,"",NA
"5c7eb988ac63960015004d03",5,"Read Recog","SIGN","TICK","Study1","U",47,35,"Study","Study Phase","",1249,"",NA
"5c7eb988ac63960015004d03",5,"Read Recog","SIP","DRINK","Study1","F",32,31,"Study","Study Phase","",1171,"",NA
"5c7eb988ac63960015004d03",5,"Read Recog","CEILING","CARPET","Study1","M",15,50,"Study","Study Phase","",1269,"",NA
"5c7eb988ac63960015004d03",5,"Read Recog","LION","STRIPES","Study1","M",6,44,"Study","Study Phase","",1450,"",NA
"5c7eb988ac63960015004d03",5,"Read Recog","CIRCLE","DANCE","Study1","M",13,29,"Study","Study Phase","",1241,"",NA
"5c7eb988ac63960015004d03",5,"Read Recog","LISTEN","FICTION","Study1","U",44,43,"Study","Study Phase","",1319,"",NA
"5c7eb988ac63960015004d03",5,"Read Recog","MAZE","PHONE","Study1","U",42,37,"Study","Study Phase","",1012,"",NA
"5c7eb988ac63960015004d03",5,"Read Recog","WORD","SENTENCE","Study1","F",27,42,"Study","Study Phase","",1125,"",NA
"5c7eb988ac63960015004d03",5,"Read Recog","TOOTH","HAIR","Study1","M",19,39,"Study","Study Phase","",980,"",NA
"5c7eb988ac63960015004d03",5,"Read Recog","ROOT","PLANT","Study1","F",25,34,"Study","Study Phase","",1126,"",NA
"5c7eb988ac63960015004d03",5,"Read Recog","SHELL","SHAKE","Study1","U",43,38,"Study","Study Phase","",1047,"",NA
"5c7eb988ac63960015004d03",5,"Read Recog","NAP","SLEEP","Study1","F",29,24,"Study","Study Phase","",1240,"",NA
"5c7eb988ac63960015004d03",5,"Read Recog","VEHICLE","CHARM","Study1","U",40,8,"Study","Study Phase","",1137,"",NA
"5c7eb988ac63960015004d03",5,"Read Recog","SCALP","HEAD","Study1","F",23,19,"Study","Study Phase","",989,"",NA
"5c7eb988ac63960015004d03",5,"Read Recog","TUNA","FISH","Study1","F",35,20,"Study","Study Phase","",1210,"",NA
"5c7eb988ac63960015004d03",5,"Read Recog","DAY","DARK","Study1","M",18,49,"Study","Study Phase","",1062,"",NA
"5c7eb988ac63960015004d03",5,"Read Recog","BIRTHDAY","PIE","Study1","M",9,23,"Study","Study Phase","",1387,"",NA
"5c9d05e72b3c77001744e8d2",5,"Read Recog","CEILING","CARPET","Study1","M",15,41,"Study","Study Phase","",2567,"",NA
"5c9d05e72b3c77001744e8d2",5,"Read Recog","LITTER","TRASH","Study1","F",21,31,"Study","Study Phase","",1534,"",NA
"5c9d05e72b3c77001744e8d2",5,"Read Recog","TUNA","FISH","Study1","F",35,23,"Study","Study Phase","",1677,"",NA
"5c9d05e72b3c77001744e8d2",5,"Read Recog","WAGE","MONEY","Study1","F",22,30,"Study","Study Phase","",1433,"",NA
"5c9d05e72b3c77001744e8d2",5,"Read Recog","CIRCLE","DANCE","Study1","M",13,14,"Study","Study Phase","",1451,"",NA
"5c9d05e72b3c77001744e8d2",5,"Read Recog","ROUGH","SILK","Study1","M",10,9,"Study","Study Phase","",1312,"",NA
"5c9d05e72b3c77001744e8d2",5,"Read Recog","VEHICLE","CHARM","Study1","U",40,45,"Study","Study Phase","",1288,"",NA
"5c9d05e72b3c77001744e8d2",5,"Read Recog","SCALP","HEAD","Study1","F",23,8,"Study","Study Phase","",2289,"",NA
"5c9d05e72b3c77001744e8d2",5,"Read Recog","KEYS","ROD","Study1","U",45,11,"Study","Study Phase","",3329,"",NA
"5c9d05e72b3c77001744e8d2",5,"Read Recog","MULE","DONKEY","Study1","F",30,46,"Study","Study Phase","",1610,"",NA
"5c9d05e72b3c77001744e8d2",5,"Read Recog","HORSE","WHEEL","Study1","M",14,35,"Study","Study Phase","",2894,"",NA
"5c9d05e72b3c77001744e8d2",5,"Read Recog","SWAN","BIRD","Study1","F",26,25,"Study","Study Phase","",2972,"",NA
"5c9d05e72b3c77001744e8d2",5,"Read Recog","HARD","COTTON","Study1","M",20,36,"Study","Study Phase","",1903,"",NA
"5c9d05e72b3c77001744e8d2",5,"Read Recog","BIRTHDAY","PIE","Study1","M",9,19,"Study","Study Phase","",2193,"",NA
"5c9d05e72b3c77001744e8d2",5,"Read Recog","SHELL","SHAKE","Study1","U",43,49,"Study","Study Phase","",3680,"",NA
"5c9d05e72b3c77001744e8d2",5,"Read Recog","TEMPERATURE","MORNING","Study1","U",48,24,"Study","Study Phase","",3025,"",NA
"5c9d05e72b3c77001744e8d2",5,"Read Recog","MIRROR","MAROON","Study1","U",36,27,"Study","Study Phase","",2691,"",NA
"5c9d05e72b3c77001744e8d2",5,"Read Recog","ROOT","PLANT","Study1","F",25,51,"Study","Study Phase","",1850,"",NA
"5c9d05e72b3c77001744e8d2",5,"Read Recog","MAZE","PHONE","Study1","U",42,26,"Study","Study Phase","",1316,"",NA
"5c9d05e72b3c77001744e8d2",5,"Read Recog","LION","STRIPES","Study1","M",6,38,"Study","Study Phase","",1198,"",NA
"5c9d05e72b3c77001744e8d2",5,"Read Recog","FUZZY","BANG","Study1","U",50,28,"Study","Study Phase","",1071,"",NA
"5c9d05e72b3c77001744e8d2",5,"Read Recog","HYGIENE","CLEAN","Study1","F",28,48,"Study","Study Phase","",2632,"",NA
"5c9d05e72b3c77001744e8d2",5,"Read Recog","MEAT","KEYS","Study1","U",41,43,"Study","Study Phase","",2008,"",NA
"5c9d05e72b3c77001744e8d2",5,"Read Recog","BEACH","BOX","Study1","M",7,18,"Study","Study Phase","",2023,"",NA
"5c9d05e72b3c77001744e8d2",5,"Read Recog","WAR","QUIET","Study1","M",8,17,"Study","Study Phase","",3262,"",NA
"5c9d05e72b3c77001744e8d2",5,"Read Recog","LISTEN","FICTION","Study1","U",44,39,"Study","Study Phase","",4628,"",NA
"5c9d05e72b3c77001744e8d2",5,"Read Recog","TREE","SYRUP","Study1","M",11,10,"Study","Study Phase","",4240,"",NA
"5c9d05e72b3c77001744e8d2",5,"Read Recog","SOON","BELT","Study1","U",46,16,"Study","Study Phase","",6415,"",NA
"5c9d05e72b3c77001744e8d2",5,"Read Recog","GIVE","STEAK","Study1","U",38,40,"Study","Study Phase","",4084,"",NA
"5c9d05e72b3c77001744e8d2",5,"Read Recog","NAP","SLEEP","Study1","F",29,47,"Study","Study Phase","",1030,"",NA
"5c9d05e72b3c77001744e8d2",5,"Read Recog","MULE","DONKEY","Study1","F",24,15,"Study","Study Phase","",1806,"",NA
"5c9d05e72b3c77001744e8d2",5,"Read Recog","CRY","BOTTLE","Study1","M",16,44,"Study","Study Phase","",2995,"",NA
"5c9d05e72b3c77001744e8d2",5,"Read Recog","BAT","BOUNCE","Study1","M",12,12,"Study","Study Phase","",3125,"",NA
"5c9d05e72b3c77001744e8d2",5,"Read Recog","WEDDING","FINGER","Study1","M",17,29,"Study","Study Phase","",2677,"",NA
"5c9d05e72b3c77001744e8d2",5,"Read Recog","DAY","DARK","Study1","M",18,20,"Study","Study Phase","",3407,"",NA
"5c9d05e72b3c77001744e8d2",5,"Read Recog","STRETCH","CLOTH","Study1","U",37,13,"Study","Study Phase","",4461,"",NA
"5c9d05e72b3c77001744e8d2",5,"Read Recog","WORD","SENTENCE","Study1","F",27,37,"Study","Study Phase","",1755,"",NA
"5c9d05e72b3c77001744e8d2",5,"Read Recog","CRACKLE","ELECTION","Study1","U",39,42,"Study","Study Phase","",6695,"",NA
"5c9d05e72b3c77001744e8d2",5,"Read Recog","TOOTH","HAIR","Study1","M",19,34,"Study","Study Phase","",3462,"",NA
"5c9d05e72b3c77001744e8d2",5,"Read Recog","CREDIT","CARD","Study1","F",33,7,"Study","Study Phase","",1322,"",NA
"5c9d05e72b3c77001744e8d2",5,"Read Recog","ORCHID","FLOWER","Study1","F",34,33,"Study","Study Phase","",1295,"",NA
"5c9d05e72b3c77001744e8d2",5,"Read Recog","SIGN","TICK","Study1","U",47,32,"Study","Study Phase","",2216,"",NA
"5c9d05e72b3c77001744e8d2",5,"Read Recog","AFFECTION","LOVE","Study1","F",31,50,"Study","Study Phase","",2382,"",NA
"5c9d05e72b3c77001744e8d2",5,"Read Recog","SIP","DRINK","Study1","F",32,22,"Study","Study Phase","",5897,"",NA
"5c9d05e72b3c77001744e8d2",5,"Read Recog","CAKE","HAND","Study1","U",49,21,"Study","Study Phase","",7950,"",NA
"5cf656e90acc8f000147f643",5,"Read Recog","ROOT","PLANT","Study1","F",25,19,"Study","Study Phase","",4543,"",NA
"5cf656e90acc8f000147f643",5,"Read Recog","BEACH","BOX","Study1","M",7,18,"Study","Study Phase","",2914,"",NA
"5cf656e90acc8f000147f643",5,"Read Recog","TEMPERATURE","MORNING","Study1","U",48,26,"Study","Study Phase","",5595,"",NA
"5cf656e90acc8f000147f643",5,"Read Recog","WAR","QUIET","Study1","M",8,32,"Study","Study Phase","",4465,"",NA
"5cf656e90acc8f000147f643",5,"Read Recog","MULE","DONKEY","Study1","F",24,40,"Study","Study Phase","",4267,"",NA
"5cf656e90acc8f000147f643",5,"Read Recog","LITTER","TRASH","Study1","F",21,13,"Study","Study Phase","",3705,"",NA
"5cf656e90acc8f000147f643",5,"Read Recog","STRETCH","CLOTH","Study1","U",37,51,"Study","Study Phase","",4976,"",NA
"5cf656e90acc8f000147f643",5,"Read Recog","HYGIENE","CLEAN","Study1","F",28,34,"Study","Study Phase","",4452,"",NA
"5cf656e90acc8f000147f643",5,"Read Recog","MIRROR","MAROON","Study1","U",36,31,"Study","Study Phase","",6445,"",NA
"5cf656e90acc8f000147f643",5,"Read Recog","CRACKLE","ELECTION","Study1","U",39,8,"Study","Study Phase","",5916,"",NA
"5cf656e90acc8f000147f643",5,"Read Recog","LISTEN","FICTION","Study1","U",44,44,"Study","Study Phase","",4519,"",NA
"5cf656e90acc8f000147f643",5,"Read Recog","CRY","BOTTLE","Study1","M",16,45,"Study","Study Phase","",6818,"",NA
"5cf656e90acc8f000147f643",5,"Read Recog","WEDDING","FINGER","Study1","M",17,37,"Study","Study Phase","",3635,"",NA
"5cf656e90acc8f000147f643",5,"Read Recog","CAKE","HAND","Study1","U",49,46,"Study","Study Phase","",5132,"",NA
"5cf656e90acc8f000147f643",5,"Read Recog","FUZZY","BANG","Study1","U",50,25,"Study","Study Phase","",6123,"",NA
"5cf656e90acc8f000147f643",5,"Read Recog","NAP","SLEEP","Study1","F",29,27,"Study","Study Phase","",5394,"",NA
"5cf656e90acc8f000147f643",5,"Read Recog","SCALP","HEAD","Study1","F",23,43,"Study","Study Phase","",5846,"",NA
"5cf656e90acc8f000147f643",5,"Read Recog","ROUGH","SILK","Study1","M",10,20,"Study","Study Phase","",6970,"",NA
"5cf656e90acc8f000147f643",5,"Read Recog","KEYS","ROD","Study1","U",45,39,"Study","Study Phase","",8262,"",NA
"5cf656e90acc8f000147f643",5,"Read Recog","SHELL","SHAKE","Study1","U",43,23,"Study","Study Phase","",6006,"",NA
"5cf656e90acc8f000147f643",5,"Read Recog","HORSE","WHEEL","Study1","M",14,35,"Study","Study Phase","",6054,"",NA
"5cf656e90acc8f000147f643",5,"Read Recog","WAGE","MONEY","Study1","F",22,50,"Study","Study Phase","",3925,"",NA
"5cf656e90acc8f000147f643",5,"Read Recog","CREDIT","CARD","Study1","F",33,41,"Study","Study Phase","",2364,"",NA
"5cf656e90acc8f000147f643",5,"Read Recog","SIGN","TICK","Study1","U",47,29,"Study","Study Phase","",9975,"",NA
"5cf656e90acc8f000147f643",5,"Read Recog","SOON","BELT","Study1","U",46,7,"Study","Study Phase","",8138,"",NA
"5cf656e90acc8f000147f643",5,"Read Recog","DAY","DARK","Study1","M",18,30,"Study","Study Phase","",5230,"",NA
"5cf656e90acc8f000147f643",5,"Read Recog","AFFECTION","LOVE","Study1","F",31,22,"Study","Study Phase","",2921,"",NA
"5cf656e90acc8f000147f643",5,"Read Recog","MAZE","PHONE","Study1","U",42,42,"Study","Study Phase","",8947,"",NA
"5cf656e90acc8f000147f643",5,"Read Recog","BIRTHDAY","PIE","Study1","M",9,17,"Study","Study Phase","",4717,"",NA
"5cf656e90acc8f000147f643",5,"Read Recog","ORCHID","FLOWER","Study1","F",34,10,"Study","Study Phase","",2021,"",NA
"5cf656e90acc8f000147f643",5,"Read Recog","TREE","SYRUP","Study1","M",11,15,"Study","Study Phase","",9667,"",NA
"5cf656e90acc8f000147f643",5,"Read Recog","LION","STRIPES","Study1","M",6,33,"Study","Study Phase","",5784,"",NA
"5cf656e90acc8f000147f643",5,"Read Recog","MULE","DONKEY","Study1","F",30,14,"Study","Study Phase","",3543,"",NA
"5cf656e90acc8f000147f643",5,"Read Recog","HARD","COTTON","Study1","M",20,24,"Study","Study Phase","",8553,"",NA
"5cf656e90acc8f000147f643",5,"Read Recog","GIVE","STEAK","Study1","U",38,11,"Study","Study Phase","",9470,"",NA
"5cf656e90acc8f000147f643",5,"Read Recog","BAT","BOUNCE","Study1","M",12,38,"Study","Study Phase","",7749,"",NA
"5cf656e90acc8f000147f643",5,"Read Recog","MEAT","KEYS","Study1","U",41,9,"Study","Study Phase","",10019,"",NA
"5cf656e90acc8f000147f643",5,"Read Recog","WORD","SENTENCE","Study1","F",27,28,"Study","Study Phase","",3605,"",NA
"5cf656e90acc8f000147f643",5,"Read Recog","SWAN","BIRD","Study1","F",26,48,"Study","Study Phase","",2634,"",NA
"5cf656e90acc8f000147f643",5,"Read Recog","VEHICLE","CHARM","Study1","U",40,36,"Study","Study Phase","",9967,"",NA
"5cf656e90acc8f000147f643",5,"Read Recog","TOOTH","HAIR","Study1","M",19,47,"Study","Study Phase","",7497,"",NA
"5cf656e90acc8f000147f643",5,"Read Recog","CIRCLE","DANCE","Study1","M",13,49,"Study","Study Phase","",3847,"",NA
"5cf656e90acc8f000147f643",5,"Read Recog","SIP","DRINK","Study1","F",32,16,"Study","Study Phase","",3058,"",NA
"5cf656e90acc8f000147f643",5,"Read Recog","CEILING","CARPET","Study1","M",15,21,"Study","Study Phase","",4682,"",NA
"5cf656e90acc8f000147f643",5,"Read Recog","TUNA","FISH","Study1","F",35,12,"Study","Study Phase","",3017,"",NA
"5dc5da21d999de45a504651b",5,"Read Recog","STRETCH","CLOTH","Study1","U",37,30,"Study","Study Phase","",2668,"",NA
"5dc5da21d999de45a504651b",5,"Read Recog","CIRCLE","DANCE","Study1","M",13,41,"Study","Study Phase","",6124,"",NA
"5dc5da21d999de45a504651b",5,"Read Recog","CAKE","HAND","Study1","U",49,16,"Study","Study Phase","",3971,"",NA
"5dc5da21d999de45a504651b",5,"Read Recog","ROOT","PLANT","Study1","F",25,9,"Study","Study Phase","",4309,"",NA
"5dc5da21d999de45a504651b",5,"Read Recog","DAY","DARK","Study1","M",18,36,"Study","Study Phase","",4060,"",NA
"5dc5da21d999de45a504651b",5,"Read Recog","NAP","SLEEP","Study1","F",29,22,"Study","Study Phase","",3926,"",NA
"5dc5da21d999de45a504651b",5,"Read Recog","BAT","BOUNCE","Study1","M",12,25,"Study","Study Phase","",4122,"",NA
"5dc5da21d999de45a504651b",5,"Read Recog","CRACKLE","ELECTION","Study1","U",39,48,"Study","Study Phase","",3817,"",NA
"5dc5da21d999de45a504651b",5,"Read Recog","SWAN","BIRD","Study1","F",26,27,"Study","Study Phase","",3532,"",NA
"5dc5da21d999de45a504651b",5,"Read Recog","WORD","SENTENCE","Study1","F",27,31,"Study","Study Phase","",3779,"",NA
"5dc5da21d999de45a504651b",5,"Read Recog","HARD","COTTON","Study1","M",20,18,"Study","Study Phase","",4270,"",NA
"5dc5da21d999de45a504651b",5,"Read Recog","FUZZY","BANG","Study1","U",50,40,"Study","Study Phase","",4492,"",NA
"5dc5da21d999de45a504651b",5,"Read Recog","AFFECTION","LOVE","Study1","F",31,39,"Study","Study Phase","",5202,"",NA
"5dc5da21d999de45a504651b",5,"Read Recog","SHELL","SHAKE","Study1","U",43,19,"Study","Study Phase","",5883,"",NA
"5dc5da21d999de45a504651b",5,"Read Recog","WAR","QUIET","Study1","M",8,10,"Study","Study Phase","",5264,"",NA
"5dc5da21d999de45a504651b",5,"Read Recog","MIRROR","MAROON","Study1","U",36,20,"Study","Study Phase","",4799,"",NA
"5dc5da21d999de45a504651b",5,"Read Recog","KEYS","ROD","Study1","U",45,42,"Study","Study Phase","",4056,"",NA
"5dc5da21d999de45a504651b",5,"Read Recog","VEHICLE","CHARM","Study1","U",40,23,"Study","Study Phase","",6168,"",NA
"5dc5da21d999de45a504651b",5,"Read Recog","HYGIENE","CLEAN","Study1","F",28,43,"Study","Study Phase","",3816,"",NA
"5dc5da21d999de45a504651b",5,"Read Recog","SIP","DRINK","Study1","F",32,44,"Study","Study Phase","",3896,"",NA
"5dc5da21d999de45a504651b",5,"Read Recog","HORSE","WHEEL","Study1","M",14,46,"Study","Study Phase","",5655,"",NA
"5dc5da21d999de45a504651b",5,"Read Recog","MULE","DONKEY","Study1","F",30,51,"Study","Study Phase","",4285,"",NA
"5dc5da21d999de45a504651b",5,"Read Recog","CREDIT","CARD","Study1","F",33,50,"Study","Study Phase","",3821,"",NA
"5dc5da21d999de45a504651b",5,"Read Recog","BIRTHDAY","PIE","Study1","M",9,14,"Study","Study Phase","",4032,"",NA
"5dc5da21d999de45a504651b",5,"Read Recog","SOON","BELT","Study1","U",46,21,"Study","Study Phase","",4676,"",NA
"5dc5da21d999de45a504651b",5,"Read Recog","TEMPERATURE","MORNING","Study1","U",48,15,"Study","Study Phase","",4129,"",NA
"5dc5da21d999de45a504651b",5,"Read Recog","ROUGH","SILK","Study1","M",10,34,"Study","Study Phase","",3719,"",NA
"5dc5da21d999de45a504651b",5,"Read Recog","SCALP","HEAD","Study1","F",23,29,"Study","Study Phase","",3847,"",NA
"5dc5da21d999de45a504651b",5,"Read Recog","LION","STRIPES","Study1","M",6,28,"Study","Study Phase","",6986,"",NA
"5dc5da21d999de45a504651b",5,"Read Recog","GIVE","STEAK","Study1","U",38,17,"Study","Study Phase","",3645,"",NA
"5dc5da21d999de45a504651b",5,"Read Recog","TREE","SYRUP","Study1","M",11,35,"Study","Study Phase","",3764,"",NA
"5dc5da21d999de45a504651b",5,"Read Recog","SIGN","TICK","Study1","U",47,37,"Study","Study Phase","",3518,"",NA
"5dc5da21d999de45a504651b",5,"Read Recog","LITTER","TRASH","Study1","F",21,13,"Study","Study Phase","",3783,"",NA
"5dc5da21d999de45a504651b",5,"Read Recog","MEAT","KEYS","Study1","U",41,11,"Study","Study Phase","",4990,"",NA
"5dc5da21d999de45a504651b",5,"Read Recog","WEDDING","FINGER","Study1","M",17,33,"Study","Study Phase","",4836,"",NA
"5dc5da21d999de45a504651b",5,"Read Recog","MAZE","PHONE","Study1","U",42,26,"Study","Study Phase","",3350,"",NA
"5dc5da21d999de45a504651b",5,"Read Recog","TOOTH","HAIR","Study1","M",19,45,"Study","Study Phase","",5683,"",NA
"5dc5da21d999de45a504651b",5,"Read Recog","BEACH","BOX","Study1","M",7,49,"Study","Study Phase","",4724,"",NA
"5dc5da21d999de45a504651b",5,"Read Recog","WAGE","MONEY","Study1","F",22,47,"Study","Study Phase","",3999,"",NA
"5dc5da21d999de45a504651b",5,"Read Recog","LISTEN","FICTION","Study1","U",44,24,"Study","Study Phase","",4162,"",NA
"5dc5da21d999de45a504651b",5,"Read Recog","ORCHID","FLOWER","Study1","F",34,32,"Study","Study Phase","",12417,"",NA
"5dc5da21d999de45a504651b",5,"Read Recog","CRY","BOTTLE","Study1","M",16,38,"Study","Study Phase","",4284,"",NA
"5dc5da21d999de45a504651b",5,"Read Recog","MULE","DONKEY","Study1","F",24,12,"Study","Study Phase","",3249,"",NA
"5dc5da21d999de45a504651b",5,"Read Recog","TUNA","FISH","Study1","F",35,7,"Study","Study Phase","",3176,"",NA
"5dc5da21d999de45a504651b",5,"Read Recog","CEILING","CARPET","Study1","M",15,8,"Study","Study Phase","",5029,"",NA
"5dee651e58776a51569d31f3",7,"Read Recog","BOTH","OUNCE","Study2","U",47,27,"Study","Study Phase","",6324,"",NA
"5dee651e58776a51569d31f3",7,"Read Recog","CACTUS","PLANT","Study2","F",21,39,"Study","Study Phase","",1861,"",NA
"5dee651e58776a51569d31f3",7,"Read Recog","TRAP","CAVE","Study2","M",15,48,"Study","Study Phase","",2935,"",NA
"5dee651e58776a51569d31f3",7,"Read Recog","GRILL","THIGH","Study2","M",17,13,"Study","Study Phase","",2646,"",NA
"5dee651e58776a51569d31f3",7,"Read Recog","LEAGUE","BASEBALL","Study2","F",29,33,"Study","Study Phase","",1888,"",NA
"5dee651e58776a51569d31f3",7,"Read Recog","ATTIRE","CLOTHES","Study2","F",24,51,"Study","Study Phase","",1100,"",NA
"5dee651e58776a51569d31f3",7,"Read Recog","CHERRY","RED","Study2","F",25,46,"Study","Study Phase","",1874,"",NA
"5dee651e58776a51569d31f3",7,"Read Recog","ART","WOLF","Study2","U",38,36,"Study","Study Phase","",2026,"",NA
"5dee651e58776a51569d31f3",7,"Read Recog","NURSE","LAWYER","Study2","M",11,7,"Study","Study Phase","",5001,"",NA
"5dee651e58776a51569d31f3",7,"Read Recog","HEAVY","FEATHER","Study2","M",13,18,"Study","Study Phase","",2079,"",NA
"5dee651e58776a51569d31f3",7,"Read Recog","DEATH","BUSINESS","Study2","U",44,50,"Study","Study Phase","",2464,"",NA
"5dee651e58776a51569d31f3",7,"Read Recog","VALLEY","PEAK","Study2","M",18,45,"Study","Study Phase","",1773,"",NA
"5dee651e58776a51569d31f3",7,"Read Recog","SUGAR","RIDDLE","Study2","U",40,25,"Study","Study Phase","",7379,"",NA
"5dee651e58776a51569d31f3",7,"Read Recog","CHISEL","HAMMER","Study2","F",23,47,"Study","Study Phase","",1157,"",NA
"5dee651e58776a51569d31f3",7,"Read Recog","CASH","LEG","Study2","U",50,23,"Study","Study Phase","",2116,"",NA
"5dee651e58776a51569d31f3",7,"Read Recog","BRIDGE","WATER","Study2","F",35,10,"Study","Study Phase","",1361,"",NA
"5dee651e58776a51569d31f3",7,"Read Recog","WINDOW","KNOB","Study2","M",19,32,"Study","Study Phase","",3402,"",NA
"5dee651e58776a51569d31f3",7,"Read Recog","BLAZE","FIRE","Study2","F",26,11,"Study","Study Phase","",1054,"",NA
"5dee651e58776a51569d31f3",7,"Read Recog","BENCH","HORN","Study2","U",43,12,"Study","Study Phase","",4729,"",NA
"5dee651e58776a51569d31f3",7,"Read Recog","SOAP","DRINK","Study2","M",12,8,"Study","Study Phase","",6463,"",NA
"5dee651e58776a51569d31f3",7,"Read Recog","CHILL","COLD","Study2","F",32,40,"Study","Study Phase","",1250,"",NA
"5dee651e58776a51569d31f3",7,"Read Recog","EYES","SMELL","Study2","M",10,44,"Study","Study Phase","",4296,"",NA
"5dee651e58776a51569d31f3",7,"Read Recog","HORNET","STING","Study2","F",30,9,"Study","Study Phase","",915,"",NA
"5dee651e58776a51569d31f3",7,"Read Recog","SICK","HIDE","Study2","U",45,38,"Study","Study Phase","",2939,"",NA
"5dee651e58776a51569d31f3",7,"Read Recog","RAZOR","MUSCLE","Study2","M",20,14,"Study","Study Phase","",1911,"",NA
"5dee651e58776a51569d31f3",7,"Read Recog","HERD","COW","Study2","F",33,22,"Study","Study Phase","",965,"",NA
"5dee651e58776a51569d31f3",7,"Read Recog","DOCUMENT","PAPER","Study2","F",27,42,"Study","Study Phase","",1471,"",NA
"5dee651e58776a51569d31f3",7,"Read Recog","INCENSE","SMELL","Study2","F",28,17,"Study","Study Phase","",856,"",NA
"5dee651e58776a51569d31f3",7,"Read Recog","RAKE","SEED","Study2","M",14,49,"Study","Study Phase","",1360,"",NA
"5dee651e58776a51569d31f3",7,"Read Recog","LEASE","TOIL","Study2","U",46,37,"Study","Study Phase","",3965,"",NA
"5dee651e58776a51569d31f3",7,"Read Recog","REALITY","ISLAND","Study2","M",9,34,"Study","Study Phase","",4238,"",NA
"5dee651e58776a51569d31f3",7,"Read Recog","DIETARY","SACK","Study2","U",42,16,"Study","Study Phase","",4879,"",NA
"5dee651e58776a51569d31f3",7,"Read Recog","ARTERY","BRONZE","Study2","U",48,26,"Study","Study Phase","",2930,"",NA
"5dee651e58776a51569d31f3",7,"Read Recog","WASP","BUG","Study2","F",34,29,"Study","Study Phase","",1263,"",NA
"5dee651e58776a51569d31f3",7,"Read Recog","FEUD","FIGHT","Study2","F",31,24,"Study","Study Phase","",993,"",NA
"5dee651e58776a51569d31f3",7,"Read Recog","CHOP","CUT","Study2","F",22,41,"Study","Study Phase","",848,"",NA
"5dee651e58776a51569d31f3",7,"Read Recog","PANTS","COLLAR","Study2","M",8,43,"Study","Study Phase","",2873,"",NA
"5dee651e58776a51569d31f3",7,"Read Recog","SCHOOL","STOP","Study2","M",7,28,"Study","Study Phase","",863,"",NA
"5dee651e58776a51569d31f3",7,"Read Recog","MIRROR","CHILDREN","Study2","U",49,30,"Study","Study Phase","",948,"",NA
"5dee651e58776a51569d31f3",7,"Read Recog","HAPPY","CAR","Study2","U",37,15,"Study","Study Phase","",1999,"",NA
"5dee651e58776a51569d31f3",7,"Read Recog","KING","VASE","Study2","U",36,31,"Study","Study Phase","",4257,"",NA
"5dee651e58776a51569d31f3",7,"Read Recog","SUMMER","SNOW","Study2","M",6,35,"Study","Study Phase","",2223,"",NA
"5dee651e58776a51569d31f3",7,"Read Recog","STRONG","ACCIDENT","Study2","U",39,21,"Study","Study Phase","",3496,"",NA
"5dee651e58776a51569d31f3",7,"Read Recog","OVEN","BASKET","Study2","M",16,20,"Study","Study Phase","",2379,"",NA
"5dee651e58776a51569d31f3",7,"Read Recog","PUSH","CLUTTER","Study2","U",41,19,"Study","Study Phase","",1964,"",NA
"5dfedfbb557425b599c8c523",5,"Read Recog","AFFECTION","LOVE","Study1","F",31,37,"Study","Study Phase","",1722,"",NA
"5dfedfbb557425b599c8c523",5,"Read Recog","TEMPERATURE","MORNING","Study1","U",48,9,"Study","Study Phase","",2789,"",NA
"5dfedfbb557425b599c8c523",5,"Read Recog","ORCHID","FLOWER","Study1","F",34,16,"Study","Study Phase","",1549,"",NA
"5dfedfbb557425b599c8c523",5,"Read Recog","HARD","COTTON","Study1","M",20,24,"Study","Study Phase","",4644,"",NA
"5dfedfbb557425b599c8c523",5,"Read Recog","SOON","BELT","Study1","U",46,45,"Study","Study Phase","",7149,"",NA
"5dfedfbb557425b599c8c523",5,"Read Recog","TOOTH","HAIR","Study1","M",19,34,"Study","Study Phase","",2416,"",NA
"5dfedfbb557425b599c8c523",5,"Read Recog","HORSE","WHEEL","Study1","M",14,35,"Study","Study Phase","",1554,"",NA
"5dfedfbb557425b599c8c523",5,"Read Recog","BIRTHDAY","PIE","Study1","M",9,49,"Study","Study Phase","",2008,"",NA
"5dfedfbb557425b599c8c523",5,"Read Recog","MULE","DONKEY","Study1","F",30,23,"Study","Study Phase","",1366,"",NA
"5dfedfbb557425b599c8c523",5,"Read Recog","SIP","DRINK","Study1","F",32,33,"Study","Study Phase","",1046,"",NA
"5dfedfbb557425b599c8c523",5,"Read Recog","TREE","SYRUP","Study1","M",11,38,"Study","Study Phase","",2208,"",NA
"5dfedfbb557425b599c8c523",5,"Read Recog","CRACKLE","ELECTION","Study1","U",39,32,"Study","Study Phase","",5095,"",NA
"5dfedfbb557425b599c8c523",5,"Read Recog","VEHICLE","CHARM","Study1","U",40,25,"Study","Study Phase","",4288,"",NA
"5dfedfbb557425b599c8c523",5,"Read Recog","HYGIENE","CLEAN","Study1","F",28,48,"Study","Study Phase","",1715,"",NA
"5dfedfbb557425b599c8c523",5,"Read Recog","MULE","DONKEY","Study1","F",24,15,"Study","Study Phase","",915,"",NA
"5dfedfbb557425b599c8c523",5,"Read Recog","MEAT","KEYS","Study1","U",41,18,"Study","Study Phase","",2897,"",NA
"5dfedfbb557425b599c8c523",5,"Read Recog","SWAN","BIRD","Study1","F",26,12,"Study","Study Phase","",1659,"",NA
"5dfedfbb557425b599c8c523",5,"Read Recog","NAP","SLEEP","Study1","F",29,21,"Study","Study Phase","",1159,"",NA
"5dfedfbb557425b599c8c523",5,"Read Recog","STRETCH","CLOTH","Study1","U",37,36,"Study","Study Phase","",3886,"",NA
"5dfedfbb557425b599c8c523",5,"Read Recog","MAZE","PHONE","Study1","U",42,40,"Study","Study Phase","",3445,"",NA
"5dfedfbb557425b599c8c523",5,"Read Recog","ROUGH","SILK","Study1","M",10,14,"Study","Study Phase","",5304,"",NA
"5dfedfbb557425b599c8c523",5,"Read Recog","ROOT","PLANT","Study1","F",25,30,"Study","Study Phase","",1085,"",NA
"5dfedfbb557425b599c8c523",5,"Read Recog","CRY","BOTTLE","Study1","M",16,28,"Study","Study Phase","",4662,"",NA
"5dfedfbb557425b599c8c523",5,"Read Recog","WORD","SENTENCE","Study1","F",27,22,"Study","Study Phase","",1076,"",NA
"5dfedfbb557425b599c8c523",5,"Read Recog","CAKE","HAND","Study1","U",49,46,"Study","Study Phase","",3283,"",NA
"5dfedfbb557425b599c8c523",5,"Read Recog","KEYS","ROD","Study1","U",45,44,"Study","Study Phase","",6504,"",NA
"5dfedfbb557425b599c8c523",5,"Read Recog","CREDIT","CARD","Study1","F",33,47,"Study","Study Phase","",1052,"",NA
"5dfedfbb557425b599c8c523",5,"Read Recog","FUZZY","BANG","Study1","U",50,26,"Study","Study Phase","",3653,"",NA
"5dfedfbb557425b599c8c523",5,"Read Recog","SHELL","SHAKE","Study1","U",43,50,"Study","Study Phase","",2550,"",NA
"5dfedfbb557425b599c8c523",5,"Read Recog","DAY","DARK","Study1","M",18,17,"Study","Study Phase","",3207,"",NA
"5dfedfbb557425b599c8c523",5,"Read Recog","WAGE","MONEY","Study1","F",22,43,"Study","Study Phase","",1192,"",NA
"5dfedfbb557425b599c8c523",5,"Read Recog","MIRROR","MAROON","Study1","U",36,39,"Study","Study Phase","",2224,"",NA
"5dfedfbb557425b599c8c523",5,"Read Recog","WAR","QUIET","Study1","M",8,29,"Study","Study Phase","",5537,"",NA
"5dfedfbb557425b599c8c523",5,"Read Recog","CEILING","CARPET","Study1","M",15,10,"Study","Study Phase","",1836,"",NA
"5dfedfbb557425b599c8c523",5,"Read Recog","GIVE","STEAK","Study1","U",38,7,"Study","Study Phase","",4614,"",NA
"5dfedfbb557425b599c8c523",5,"Read Recog","SCALP","HEAD","Study1","F",23,51,"Study","Study Phase","",1236,"",NA
"5dfedfbb557425b599c8c523",5,"Read Recog","LION","STRIPES","Study1","M",6,19,"Study","Study Phase","",3608,"",NA
"5dfedfbb557425b599c8c523",5,"Read Recog","LITTER","TRASH","Study1","F",21,31,"Study","Study Phase","",985,"",NA
"5dfedfbb557425b599c8c523",5,"Read Recog","BAT","BOUNCE","Study1","M",12,8,"Study","Study Phase","",2691,"",NA
"5dfedfbb557425b599c8c523",5,"Read Recog","WEDDING","FINGER","Study1","M",17,20,"Study","Study Phase","",1653,"",NA
"5dfedfbb557425b599c8c523",5,"Read Recog","TUNA","FISH","Study1","F",35,27,"Study","Study Phase","",848,"",NA
"5dfedfbb557425b599c8c523",5,"Read Recog","SIGN","TICK","Study1","U",47,41,"Study","Study Phase","",3387,"",NA
"5dfedfbb557425b599c8c523",5,"Read Recog","LISTEN","FICTION","Study1","U",44,42,"Study","Study Phase","",5167,"",NA
"5dfedfbb557425b599c8c523",5,"Read Recog","CIRCLE","DANCE","Study1","M",13,13,"Study","Study Phase","",1802,"",NA
"5dfedfbb557425b599c8c523",5,"Read Recog","BEACH","BOX","Study1","M",7,11,"Study","Study Phase","",1940,"",NA
"5e26052bdac57484bff2bfe6",7,"Read Recog","WASP","BUG","Study2","F",34,37,"Study","Study Phase","",10365,"",NA
"5e26052bdac57484bff2bfe6",7,"Read Recog","TRAP","CAVE","Study2","M",15,11,"Study","Study Phase","",14907,"",NA
"5e26052bdac57484bff2bfe6",7,"Read Recog","SUMMER","SNOW","Study2","M",6,43,"Study","Study Phase","",7345,"",NA
"5e26052bdac57484bff2bfe6",7,"Read Recog","BRIDGE","WATER","Study2","F",35,35,"Study","Study Phase","",5360,"",NA
"5e26052bdac57484bff2bfe6",7,"Read Recog","CHISEL","HAMMER","Study2","F",23,42,"Study","Study Phase","",11815,"",NA
"5e26052bdac57484bff2bfe6",7,"Read Recog","BOTH","OUNCE","Study2","U",47,34,"Study","Study Phase","",10030,"",NA
"5e26052bdac57484bff2bfe6",7,"Read Recog","STRONG","ACCIDENT","Study2","U",39,14,"Study","Study Phase","",10128,"",NA
"5e26052bdac57484bff2bfe6",7,"Read Recog","PUSH","CLUTTER","Study2","U",41,27,"Study","Study Phase","",14227,"",NA
"5e26052bdac57484bff2bfe6",7,"Read Recog","DIETARY","SACK","Study2","U",42,16,"Study","Study Phase","",17596,"",NA
"5e26052bdac57484bff2bfe6",7,"Read Recog","ATTIRE","CLOTHES","Study2","F",24,19,"Study","Study Phase","",6649,"",NA
"5e26052bdac57484bff2bfe6",7,"Read Recog","SUGAR","RIDDLE","Study2","U",40,7,"Study","Study Phase","",8632,"",NA
"5e26052bdac57484bff2bfe6",7,"Read Recog","DEATH","BUSINESS","Study2","U",44,47,"Study","Study Phase","",7653,"",NA
"5e26052bdac57484bff2bfe6",7,"Read Recog","CHILL","COLD","Study2","F",32,49,"Study","Study Phase","",12415,"",NA
"5e26052bdac57484bff2bfe6",7,"Read Recog","BENCH","HORN","Study2","U",43,12,"Study","Study Phase","",12336,"",NA
"5e26052bdac57484bff2bfe6",7,"Read Recog","WINDOW","KNOB","Study2","M",19,17,"Study","Study Phase","",19483,"",NA
"5e26052bdac57484bff2bfe6",7,"Read Recog","SCHOOL","STOP","Study2","M",7,23,"Study","Study Phase","",7180,"",NA
"5e26052bdac57484bff2bfe6",7,"Read Recog","HAPPY","CAR","Study2","U",37,36,"Study","Study Phase","",20130,"",NA
"5e26052bdac57484bff2bfe6",7,"Read Recog","ART","WOLF","Study2","U",38,8,"Study","Study Phase","",2456,"",NA
"5e26052bdac57484bff2bfe6",7,"Read Recog","CHERRY","RED","Study2","F",25,31,"Study","Study Phase","",7566,"",NA
"5e26052bdac57484bff2bfe6",7,"Read Recog","ARTERY","BRONZE","Study2","U",48,41,"Study","Study Phase","",18246,"",NA
"5e26052bdac57484bff2bfe6",7,"Read Recog","RAZOR","MUSCLE","Study2","M",20,15,"Study","Study Phase","",16243,"",NA
"5e26052bdac57484bff2bfe6",7,"Read Recog","REALITY","ISLAND","Study2","M",9,26,"Study","Study Phase","",4907,"",NA
"5e26052bdac57484bff2bfe6",7,"Read Recog","CACTUS","PLANT","Study2","F",21,30,"Study","Study Phase","",8741,"",NA
"5e26052bdac57484bff2bfe6",7,"Read Recog","RAKE","SEED","Study2","M",14,25,"Study","Study Phase","",11643,"",NA
"5e26052bdac57484bff2bfe6",7,"Read Recog","BLAZE","FIRE","Study2","F",26,39,"Study","Study Phase","",22981,"",NA
"5e26052bdac57484bff2bfe6",7,"Read Recog","SICK","HIDE","Study2","U",45,20,"Study","Study Phase","",5105,"",NA
"5e26052bdac57484bff2bfe6",7,"Read Recog","KING","VASE","Study2","U",36,21,"Study","Study Phase","",4525,"",NA
"5e26052bdac57484bff2bfe6",7,"Read Recog","OVEN","BASKET","Study2","M",16,24,"Study","Study Phase","",21035,"",NA
"5e26052bdac57484bff2bfe6",7,"Read Recog","LEASE","TOIL","Study2","U",46,22,"Study","Study Phase","",2763,"",NA
"5e26052bdac57484bff2bfe6",7,"Read Recog","GRILL","THIGH","Study2","M",17,29,"Study","Study Phase","",5859,"",NA
"5e26052bdac57484bff2bfe6",7,"Read Recog","LEAGUE","BASEBALL","Study2","F",29,33,"Study","Study Phase","",10487,"",NA
"5e26052bdac57484bff2bfe6",7,"Read Recog","CASH","LEG","Study2","U",50,10,"Study","Study Phase","",5857,"",NA
"5e26052bdac57484bff2bfe6",7,"Read Recog","DOCUMENT","PAPER","Study2","F",27,38,"Study","Study Phase","",18579,"",NA
"5e26052bdac57484bff2bfe6",7,"Read Recog","VALLEY","PEAK","Study2","M",18,51,"Study","Study Phase","",9203,"",NA
"5e26052bdac57484bff2bfe6",7,"Read Recog","HEAVY","FEATHER","Study2","M",13,44,"Study","Study Phase","",12132,"",NA
"5e26052bdac57484bff2bfe6",7,"Read Recog","HORNET","STING","Study2","F",30,32,"Study","Study Phase","",26088,"",NA
"5e26052bdac57484bff2bfe6",7,"Read Recog","FEUD","FIGHT","Study2","F",31,9,"Study","Study Phase","",8720,"",NA
"5e26052bdac57484bff2bfe6",7,"Read Recog","CHOP","CUT","Study2","F",22,13,"Study","Study Phase","",10914,"",NA
"5e26052bdac57484bff2bfe6",7,"Read Recog","PANTS","COLLAR","Study2","M",8,46,"Study","Study Phase","",1537,"",NA
"5e26052bdac57484bff2bfe6",7,"Read Recog","NURSE","LAWYER","Study2","M",11,40,"Study","Study Phase","",1331,"",NA
"5e26052bdac57484bff2bfe6",7,"Read Recog","INCENSE","SMELL","Study2","F",28,28,"Study","Study Phase","",41894,"",NA
"5e26052bdac57484bff2bfe6",7,"Read Recog","SOAP","DRINK","Study2","M",12,48,"Study","Study Phase","",1445,"",NA
"5e26052bdac57484bff2bfe6",7,"Read Recog","EYES","SMELL","Study2","M",10,18,"Study","Study Phase","",7025,"",NA
"5e26052bdac57484bff2bfe6",7,"Read Recog","MIRROR","CHILDREN","Study2","U",49,50,"Study","Study Phase","",10755,"",NA
"5e26052bdac57484bff2bfe6",7,"Read Recog","HERD","COW","Study2","F",33,45,"Study","Study Phase","",7069,"",NA
"5e8a5b46ec9b336fda76f6f1",7,"Read Recog","CACTUS","PLANT","Study2","F",21,24,"Study","Study Phase","",5122,"",NA
"5e8a5b46ec9b336fda76f6f1",7,"Read Recog","ATTIRE","CLOTHES","Study2","F",24,23,"Study","Study Phase","",3394,"",NA
"5e8a5b46ec9b336fda76f6f1",7,"Read Recog","FEUD","FIGHT","Study2","F",31,13,"Study","Study Phase","",2778,"",NA
"5e8a5b46ec9b336fda76f6f1",7,"Read Recog","LEAGUE","BASEBALL","Study2","F",29,7,"Study","Study Phase","",3878,"",NA
"5e8a5b46ec9b336fda76f6f1",7,"Read Recog","DEATH","BUSINESS","Study2","U",44,20,"Study","Study Phase","",4924,"",NA
"5e8a5b46ec9b336fda76f6f1",7,"Read Recog","PUSH","CLUTTER","Study2","U",41,34,"Study","Study Phase","",1047,"",NA
"5e8a5b46ec9b336fda76f6f1",7,"Read Recog","DIETARY","SACK","Study2","U",42,48,"Study","Study Phase","",660,"",NA
"5e8a5b46ec9b336fda76f6f1",7,"Read Recog","MIRROR","CHILDREN","Study2","U",49,27,"Study","Study Phase","",1556,"",NA
"5e8a5b46ec9b336fda76f6f1",7,"Read Recog","TRAP","CAVE","Study2","M",15,45,"Study","Study Phase","",1165,"",NA
"5e8a5b46ec9b336fda76f6f1",7,"Read Recog","CASH","LEG","Study2","U",50,40,"Study","Study Phase","",1065,"",NA
"5e8a5b46ec9b336fda76f6f1",7,"Read Recog","REALITY","ISLAND","Study2","M",9,11,"Study","Study Phase","",4112,"",NA
"5e8a5b46ec9b336fda76f6f1",7,"Read Recog","WINDOW","KNOB","Study2","M",19,15,"Study","Study Phase","",1139,"",NA
"5e8a5b46ec9b336fda76f6f1",7,"Read Recog","SUGAR","RIDDLE","Study2","U",40,33,"Study","Study Phase","",912,"",NA
"5e8a5b46ec9b336fda76f6f1",7,"Read Recog","NURSE","LAWYER","Study2","M",11,31,"Study","Study Phase","",1094,"",NA
"5e8a5b46ec9b336fda76f6f1",7,"Read Recog","SOAP","DRINK","Study2","M",12,19,"Study","Study Phase","",672,"",NA
"5e8a5b46ec9b336fda76f6f1",7,"Read Recog","GRILL","THIGH","Study2","M",17,46,"Study","Study Phase","",3404,"",NA
"5e8a5b46ec9b336fda76f6f1",7,"Read Recog","VALLEY","PEAK","Study2","M",18,51,"Study","Study Phase","",783,"",NA
"5e8a5b46ec9b336fda76f6f1",7,"Read Recog","EYES","SMELL","Study2","M",10,17,"Study","Study Phase","",2477,"",NA
"5e8a5b46ec9b336fda76f6f1",7,"Read Recog","INCENSE","SMELL","Study2","F",28,30,"Study","Study Phase","",5344,"",NA
"5e8a5b46ec9b336fda76f6f1",7,"Read Recog","BRIDGE","WATER","Study2","F",35,28,"Study","Study Phase","",3797,"",NA
"5e8a5b46ec9b336fda76f6f1",7,"Read Recog","PANTS","COLLAR","Study2","M",8,44,"Study","Study Phase","",1505,"",NA
"5e8a5b46ec9b336fda76f6f1",7,"Read Recog","ARTERY","BRONZE","Study2","U",48,22,"Study","Study Phase","",4168,"",NA
"5e8a5b46ec9b336fda76f6f1",7,"Read Recog","CHISEL","HAMMER","Study2","F",23,41,"Study","Study Phase","",1571,"",NA
"5e8a5b46ec9b336fda76f6f1",7,"Read Recog","STRONG","ACCIDENT","Study2","U",39,35,"Study","Study Phase","",1415,"",NA
"5e8a5b46ec9b336fda76f6f1",7,"Read Recog","KING","VASE","Study2","U",36,26,"Study","Study Phase","",1530,"",NA
"5e8a5b46ec9b336fda76f6f1",7,"Read Recog","SICK","HIDE","Study2","U",45,36,"Study","Study Phase","",3337,"",NA
"5e8a5b46ec9b336fda76f6f1",7,"Read Recog","CHERRY","RED","Study2","F",25,39,"Study","Study Phase","",1328,"",NA
"5e8a5b46ec9b336fda76f6f1",7,"Read Recog","BOTH","OUNCE","Study2","U",47,25,"Study","Study Phase","",4109,"",NA
"5e8a5b46ec9b336fda76f6f1",7,"Read Recog","HORNET","STING","Study2","F",30,14,"Study","Study Phase","",2046,"",NA
"5e8a5b46ec9b336fda76f6f1",7,"Read Recog","LEASE","TOIL","Study2","U",46,50,"Study","Study Phase","",1964,"",NA
"5e8a5b46ec9b336fda76f6f1",7,"Read Recog","CHOP","CUT","Study2","F",22,47,"Study","Study Phase","",1248,"",NA
"5e8a5b46ec9b336fda76f6f1",7,"Read Recog","OVEN","BASKET","Study2","M",16,49,"Study","Study Phase","",1070,"",NA
"5e8a5b46ec9b336fda76f6f1",7,"Read Recog","ART","WOLF","Study2","U",38,38,"Study","Study Phase","",1341,"",NA
"5e8a5b46ec9b336fda76f6f1",7,"Read Recog","RAKE","SEED","Study2","M",14,43,"Study","Study Phase","",1323,"",NA
"5e8a5b46ec9b336fda76f6f1",7,"Read Recog","HAPPY","CAR","Study2","U",37,18,"Study","Study Phase","",2898,"",NA
"5e8a5b46ec9b336fda76f6f1",7,"Read Recog","HEAVY","FEATHER","Study2","M",13,8,"Study","Study Phase","",1710,"",NA
"5e8a5b46ec9b336fda76f6f1",7,"Read Recog","BENCH","HORN","Study2","U",43,32,"Study","Study Phase","",1394,"",NA
"5e8a5b46ec9b336fda76f6f1",7,"Read Recog","CHILL","COLD","Study2","F",32,10,"Study","Study Phase","",954,"",NA
"5e8a5b46ec9b336fda76f6f1",7,"Read Recog","DOCUMENT","PAPER","Study2","F",27,16,"Study","Study Phase","",3770,"",NA
"5e8a5b46ec9b336fda76f6f1",7,"Read Recog","BLAZE","FIRE","Study2","F",26,37,"Study","Study Phase","",978,"",NA
"5e8a5b46ec9b336fda76f6f1",7,"Read Recog","RAZOR","MUSCLE","Study2","M",20,42,"Study","Study Phase","",1636,"",NA
"5e8a5b46ec9b336fda76f6f1",7,"Read Recog","SUMMER","SNOW","Study2","M",6,12,"Study","Study Phase","",1770,"",NA
"5e8a5b46ec9b336fda76f6f1",7,"Read Recog","HERD","COW","Study2","F",33,29,"Study","Study Phase","",1774,"",NA
"5e8a5b46ec9b336fda76f6f1",7,"Read Recog","WASP","BUG","Study2","F",34,21,"Study","Study Phase","",2214,"",NA
"5e8a5b46ec9b336fda76f6f1",7,"Read Recog","SCHOOL","STOP","Study2","M",7,9,"Study","Study Phase","",2535,"",NA
"5e96e85aa7f126177e00ea9f",7,"Read Recog","REALITY","ISLAND","Study2","M",9,39,"Study","Study Phase","",3074,"",NA
"5e96e85aa7f126177e00ea9f",7,"Read Recog","HAPPY","CAR","Study2","U",37,49,"Study","Study Phase","",2744,"",NA
"5e96e85aa7f126177e00ea9f",7,"Read Recog","DOCUMENT","PAPER","Study2","F",27,14,"Study","Study Phase","",2091,"",NA
"5e96e85aa7f126177e00ea9f",7,"Read Recog","CHISEL","HAMMER","Study2","F",23,28,"Study","Study Phase","",2548,"",NA
"5e96e85aa7f126177e00ea9f",7,"Read Recog","CHOP","CUT","Study2","F",22,22,"Study","Study Phase","",2257,"",NA
"5e96e85aa7f126177e00ea9f",7,"Read Recog","KING","VASE","Study2","U",36,42,"Study","Study Phase","",1937,"",NA
"5e96e85aa7f126177e00ea9f",7,"Read Recog","SOAP","DRINK","Study2","M",12,48,"Study","Study Phase","",2107,"",NA
"5e96e85aa7f126177e00ea9f",7,"Read Recog","BENCH","HORN","Study2","U",43,18,"Study","Study Phase","",2086,"",NA
"5e96e85aa7f126177e00ea9f",7,"Read Recog","WASP","BUG","Study2","F",34,26,"Study","Study Phase","",1932,"",NA
"5e96e85aa7f126177e00ea9f",7,"Read Recog","LEAGUE","BASEBALL","Study2","F",29,13,"Study","Study Phase","",2097,"",NA
"5e96e85aa7f126177e00ea9f",7,"Read Recog","RAKE","SEED","Study2","M",14,11,"Study","Study Phase","",1747,"",NA
"5e96e85aa7f126177e00ea9f",7,"Read Recog","HORNET","STING","Study2","F",30,24,"Study","Study Phase","",1724,"",NA
"5e96e85aa7f126177e00ea9f",7,"Read Recog","TRAP","CAVE","Study2","M",15,7,"Study","Study Phase","",1611,"",NA
"5e96e85aa7f126177e00ea9f",7,"Read Recog","ATTIRE","CLOTHES","Study2","F",24,27,"Study","Study Phase","",1697,"",NA
"5e96e85aa7f126177e00ea9f",7,"Read Recog","ARTERY","BRONZE","Study2","U",48,20,"Study","Study Phase","",2457,"",NA
"5e96e85aa7f126177e00ea9f",7,"Read Recog","HEAVY","FEATHER","Study2","M",13,32,"Study","Study Phase","",2360,"",NA
"5e96e85aa7f126177e00ea9f",7,"Read Recog","ART","WOLF","Study2","U",38,34,"Study","Study Phase","",2348,"",NA
"5e96e85aa7f126177e00ea9f",7,"Read Recog","CASH","LEG","Study2","U",50,10,"Study","Study Phase","",2489,"",NA
"5e96e85aa7f126177e00ea9f",7,"Read Recog","SICK","HIDE","Study2","U",45,41,"Study","Study Phase","",2594,"",NA
"5e96e85aa7f126177e00ea9f",7,"Read Recog","BRIDGE","WATER","Study2","F",35,29,"Study","Study Phase","",2176,"",NA
"5e96e85aa7f126177e00ea9f",7,"Read Recog","SUGAR","RIDDLE","Study2","U",40,31,"Study","Study Phase","",2212,"",NA
"5e96e85aa7f126177e00ea9f",7,"Read Recog","NURSE","LAWYER","Study2","M",11,30,"Study","Study Phase","",2216,"",NA
"5e96e85aa7f126177e00ea9f",7,"Read Recog","HERD","COW","Study2","F",33,19,"Study","Study Phase","",2056,"",NA
"5e96e85aa7f126177e00ea9f",7,"Read Recog","LEASE","TOIL","Study2","U",46,21,"Study","Study Phase","",1833,"",NA
"5e96e85aa7f126177e00ea9f",7,"Read Recog","CHILL","COLD","Study2","F",32,36,"Study","Study Phase","",1722,"",NA
"5e96e85aa7f126177e00ea9f",7,"Read Recog","WINDOW","KNOB","Study2","M",19,33,"Study","Study Phase","",1408,"",NA
"5e96e85aa7f126177e00ea9f",7,"Read Recog","STRONG","ACCIDENT","Study2","U",39,40,"Study","Study Phase","",1768,"",NA
"5e96e85aa7f126177e00ea9f",7,"Read Recog","FEUD","FIGHT","Study2","F",31,50,"Study","Study Phase","",1722,"",NA
"5e96e85aa7f126177e00ea9f",7,"Read Recog","PUSH","CLUTTER","Study2","U",41,38,"Study","Study Phase","",1811,"",NA
"5e96e85aa7f126177e00ea9f",7,"Read Recog","OVEN","BASKET","Study2","M",16,17,"Study","Study Phase","",1844,"",NA
"5e96e85aa7f126177e00ea9f",7,"Read Recog","RAZOR","MUSCLE","Study2","M",20,15,"Study","Study Phase","",1801,"",NA
"5e96e85aa7f126177e00ea9f",7,"Read Recog","EYES","SMELL","Study2","M",10,8,"Study","Study Phase","",1897,"",NA
"5e96e85aa7f126177e00ea9f",7,"Read Recog","SCHOOL","STOP","Study2","M",7,25,"Study","Study Phase","",4299,"",NA
"5e96e85aa7f126177e00ea9f",7,"Read Recog","BOTH","OUNCE","Study2","U",47,16,"Study","Study Phase","",2583,"",NA
"5e96e85aa7f126177e00ea9f",7,"Read Recog","DIETARY","SACK","Study2","U",42,37,"Study","Study Phase","",1931,"",NA
"5e96e85aa7f126177e00ea9f",7,"Read Recog","GRILL","THIGH","Study2","M",17,35,"Study","Study Phase","",1676,"",NA
"5e96e85aa7f126177e00ea9f",7,"Read Recog","SUMMER","SNOW","Study2","M",6,23,"Study","Study Phase","",1663,"",NA
"5e96e85aa7f126177e00ea9f",7,"Read Recog","BLAZE","FIRE","Study2","F",26,47,"Study","Study Phase","",1659,"",NA
"5e96e85aa7f126177e00ea9f",7,"Read Recog","CACTUS","PLANT","Study2","F",21,12,"Study","Study Phase","",1725,"",NA
"5e96e85aa7f126177e00ea9f",7,"Read Recog","MIRROR","CHILDREN","Study2","U",49,45,"Study","Study Phase","",1630,"",NA
"5e96e85aa7f126177e00ea9f",7,"Read Recog","VALLEY","PEAK","Study2","M",18,43,"Study","Study Phase","",1610,"",NA
"5e96e85aa7f126177e00ea9f",7,"Read Recog","PANTS","COLLAR","Study2","M",8,9,"Study","Study Phase","",1660,"",NA
"5e96e85aa7f126177e00ea9f",7,"Read Recog","CHERRY","RED","Study2","F",25,44,"Study","Study Phase","",1416,"",NA
"5e96e85aa7f126177e00ea9f",7,"Read Recog","DEATH","BUSINESS","Study2","U",44,51,"Study","Study Phase","",1234,"",NA
"5e96e85aa7f126177e00ea9f",7,"Read Recog","INCENSE","SMELL","Study2","F",28,46,"Study","Study Phase","",1678,"",NA
"5eaa2e6821f5961b9f4d9c04",5,"Read Recog","ROUGH","SILK","Study1","M",10,38,"Study","Study Phase","",1699,"",NA
"5eaa2e6821f5961b9f4d9c04",5,"Read Recog","VEHICLE","CHARM","Study1","U",40,9,"Study","Study Phase","",2240,"",NA
"5eaa2e6821f5961b9f4d9c04",5,"Read Recog","DAY","DARK","Study1","M",18,20,"Study","Study Phase","",1951,"",NA
"5eaa2e6821f5961b9f4d9c04",5,"Read Recog","WAGE","MONEY","Study1","F",22,17,"Study","Study Phase","",1750,"",NA
"5eaa2e6821f5961b9f4d9c04",5,"Read Recog","SOON","BELT","Study1","U",46,13,"Study","Study Phase","",1579,"",NA
"5eaa2e6821f5961b9f4d9c04",5,"Read Recog","SIP","DRINK","Study1","F",32,24,"Study","Study Phase","",1479,"",NA
"5eaa2e6821f5961b9f4d9c04",5,"Read Recog","TOOTH","HAIR","Study1","M",19,29,"Study","Study Phase","",1653,"",NA
"5eaa2e6821f5961b9f4d9c04",5,"Read Recog","BAT","BOUNCE","Study1","M",12,51,"Study","Study Phase","",1641,"",NA
"5eaa2e6821f5961b9f4d9c04",5,"Read Recog","HARD","COTTON","Study1","M",20,25,"Study","Study Phase","",1546,"",NA
"5eaa2e6821f5961b9f4d9c04",5,"Read Recog","TEMPERATURE","MORNING","Study1","U",48,45,"Study","Study Phase","",1457,"",NA
"5eaa2e6821f5961b9f4d9c04",5,"Read Recog","CAKE","HAND","Study1","U",49,32,"Study","Study Phase","",1902,"",NA
"5eaa2e6821f5961b9f4d9c04",5,"Read Recog","SHELL","SHAKE","Study1","U",43,30,"Study","Study Phase","",1522,"",NA
"5eaa2e6821f5961b9f4d9c04",5,"Read Recog","MIRROR","MAROON","Study1","U",36,19,"Study","Study Phase","",1348,"",NA
"5eaa2e6821f5961b9f4d9c04",5,"Read Recog","FUZZY","BANG","Study1","U",50,36,"Study","Study Phase","",1449,"",NA
"5eaa2e6821f5961b9f4d9c04",5,"Read Recog","MULE","DONKEY","Study1","F",30,49,"Study","Study Phase","",1362,"",NA
"5eaa2e6821f5961b9f4d9c04",5,"Read Recog","LISTEN","FICTION","Study1","U",44,35,"Study","Study Phase","",1458,"",NA
"5eaa2e6821f5961b9f4d9c04",5,"Read Recog","TUNA","FISH","Study1","F",35,41,"Study","Study Phase","",1540,"",NA
"5eaa2e6821f5961b9f4d9c04",5,"Read Recog","SWAN","BIRD","Study1","F",26,12,"Study","Study Phase","",1277,"",NA
"5eaa2e6821f5961b9f4d9c04",5,"Read Recog","KEYS","ROD","Study1","U",45,46,"Study","Study Phase","",1492,"",NA
"5eaa2e6821f5961b9f4d9c04",5,"Read Recog","MULE","DONKEY","Study1","F",24,11,"Study","Study Phase","",1449,"",NA
"5eaa2e6821f5961b9f4d9c04",5,"Read Recog","CEILING","CARPET","Study1","M",15,26,"Study","Study Phase","",1557,"",NA
"5eaa2e6821f5961b9f4d9c04",5,"Read Recog","BIRTHDAY","PIE","Study1","M",9,23,"Study","Study Phase","",1415,"",NA
"5eaa2e6821f5961b9f4d9c04",5,"Read Recog","SIGN","TICK","Study1","U",47,28,"Study","Study Phase","",1550,"",NA
"5eaa2e6821f5961b9f4d9c04",5,"Read Recog","HYGIENE","CLEAN","Study1","F",28,40,"Study","Study Phase","",1611,"",NA
"5eaa2e6821f5961b9f4d9c04",5,"Read Recog","GIVE","STEAK","Study1","U",38,8,"Study","Study Phase","",1573,"",NA
"5eaa2e6821f5961b9f4d9c04",5,"Read Recog","LITTER","TRASH","Study1","F",21,18,"Study","Study Phase","",1458,"",NA
"5eaa2e6821f5961b9f4d9c04",5,"Read Recog","WAR","QUIET","Study1","M",8,42,"Study","Study Phase","",1518,"",NA
"5eaa2e6821f5961b9f4d9c04",5,"Read Recog","CREDIT","CARD","Study1","F",33,48,"Study","Study Phase","",1321,"",NA
