Username,ID,ExperimentName,Session,Trial,Date,TimeDif,"Condition Number","Stimuli File","Order File","Condition Description","Condition Notes",Stimuli*Cue,Stimuli*Answer,Stimuli*Shuffle,"Stimuli*Stimuli Notes",Stimuli*Value,Procedure*Item,"Procedure*Trial Type","Procedure*Max Time","Procedure*Min Time",Procedure*Text,"Procedure*Procedure Notes",Procedure*Shuffle,Procedure*,Response*RT,Response*Response,Response*Accuracy,Response*RTfirst,Response*RTlast,Response*strictAcc,Response*lenientAcc,Response*focus,Response*Focus
61001c31a2048dd7cd36d392,j4ds5gb9ib,"Mediated Recog Prolific",1,1,2023-05-09T23:38:41+00:00,7.9185469150543,5,versionC_stim.csv,ReadVersion_Recog.csv,"Read Recog",Read3,,,,,,0,Instruct,-,5,"In this section, you will be presented with a series of word pairs. Please study each word pair! Your memory will be tested!",Initial_Instruct,Instruct1,,7587,,,-1,-1,,,,1
61001c31a2048dd7cd36d392,j4ds5gb9ib,"Mediated Recog Prolific",1,2,2023-05-09T23:38:43+00:00,2.6070230007172,5,versionC_stim.csv,ReadVersion_Recog.csv,"Read Recog",Read3,,,,,,0,Instruct,User,-,"You will now begin. Press Enter when you are ready to begin.",,Instruct16,,2385,,,-1,-1,,,,1
61001c31a2048dd7cd36d392,j4ds5gb9ib,"Mediated Recog Prolific",1,3,2023-05-09T23:38:48+00:00,5.2053971290588,5,versionC_stim.csv,ReadVersion_Recog.csv,"Read Recog",Read3,PITCHER,CATCHER,BUFFER1,Buffer,2,4,Study,User,-,,Study/JOL,BUFFER,,4827,,,-1,-1,,,,1
61001c31a2048dd7cd36d392,j4ds5gb9ib,"Mediated Recog Prolific",1,4,2023-05-09T23:38:50+00:00,1.8401908874512,5,versionC_stim.csv,ReadVersion_Recog.csv,"Read Recog",Read3,PEANUT,BUTTER,BUFFER1,Buffer,3,2,Study,User,-,,Study/JOL,BUFFER,,1605,,,-1,-1,,,,1
61001c31a2048dd7cd36d392,j4ds5gb9ib,"Mediated Recog Prolific",1,5,2023-05-09T23:38:53+00:00,2.4538311958313,5,versionC_stim.csv,ReadVersion_Recog.csv,"Read Recog",Read3,TREES,GREEN,BUFFER1,Buffer,1,6,Study,User,-,,Study/JOL,BUFFER,,2241,,,-1,-1,,,,1
61001c31a2048dd7cd36d392,j4ds5gb9ib,"Mediated Recog Prolific",1,6,2023-05-09T23:38:55+00:00,2.3390159606934,5,versionC_stim.csv,ReadVersion_Recog.csv,"Read Recog",Read3,SCARE,FRIGHT,BUFFER1,Buffer,4,3,Study,User,-,,Study/JOL,BUFFER,,2108,,,-1,-1,,,,1
61001c31a2048dd7cd36d392,j4ds5gb9ib,"Mediated Recog Prolific",1,7,2023-05-09T23:38:57+00:00,1.9915988445282,5,versionC_stim.csv,ReadVersion_Recog.csv,"Read Recog",Read3,SPACE,JAM,BUFFER1,Buffer,5,5,Study,User,-,,Study/JOL,BUFFER,,1781,,,-1,-1,,,,1
61001c31a2048dd7cd36d392,j4ds5gb9ib,"Mediated Recog Prolific",1,8,2023-05-09T23:38:59+00:00,2.1393160820007,5,versionC_stim.csv,ReadVersion_Recog.csv,"Read Recog",Read3,SCALP,HEAD,Study1,F,8,31,Study,User,-,,Study/JOL,"Study Phase",,1925,,,-1,-1,,,,1
61001c31a2048dd7cd36d392,j4ds5gb9ib,"Mediated Recog Prolific",1,9,2023-05-09T23:39:03+00:00,3.7502040863037,5,versionC_stim.csv,ReadVersion_Recog.csv,"Read Recog",Read3,CAKE,HAND,Study1,U,34,8,Study,User,-,,Study/JOL,"Study Phase",,3534,,,-1,-1,,,,1
61001c31a2048dd7cd36d392,j4ds5gb9ib,"Mediated Recog Prolific",1,10,2023-05-09T23:39:05+00:00,2.0135698318481,5,versionC_stim.csv,ReadVersion_Recog.csv,"Read Recog",Read3,GIVE,STEAK,Study1,U,23,18,Study,User,-,,Study/JOL,"Study Phase",,1790,,,-1,-1,,,,1
61001c31a2048dd7cd36d392,j4ds5gb9ib,"Mediated Recog Prolific",1,11,2023-05-09T23:39:08+00:00,3.0038640499115,5,versionC_stim.csv,ReadVersion_Recog.csv,"Read Recog",Read3,MIRROR,MAROON,Study1,U,21,26,Study,User,-,,Study/JOL,"Study Phase",,2793,,,-1,-1,,,,1
61001c31a2048dd7cd36d392,j4ds5gb9ib,"Mediated Recog Prolific",1,12,2023-05-09T23:39:09+00:00,1.4999990463257,5,versionC_stim.csv,ReadVersion_Recog.csv,"Read Recog",Read3,NAP,SLEEP,Study1,F,14,7,Study,User,-,,Study/JOL,"Study Phase",,1294,,,-1,-1,,,,1
61001c31a2048dd7cd36d392,j4ds5gb9ib,"Mediated Recog Prolific",1,13,2023-05-09T23:39:11+00:00,1.5074729919434,5,versionC_stim.csv,ReadVersion_Recog.csv,"Read Recog",Read3,TUNA,FISH,Study1,F,20,27,Study,User,-,,Study/JOL,"Study Phase",,1295,,,-1,-1,,,,1
61001c31a2048dd7cd36d392,j4ds5gb9ib,"Mediated Recog Prolific",1,14,2023-05-09T23:39:13+00:00,1.7976911067963,5,versionC_stim.csv,ReadVersion_Recog.csv,"Read Recog",Read3,HORSE,COW,Study1,F,9,14,Study,User,-,,Study/JOL,"Study Phase",,1575,,,-1,-1,,,,1
61001c31a2048dd7cd36d392,j4ds5gb9ib,"Mediated Recog Prolific",1,15,2023-05-09T23:39:15+00:00,1.9341869354248,5,versionC_stim.csv,ReadVersion_Recog.csv,"Read Recog",Read3,WORD,SENTENCE,Study1,F,12,10,Study,User,-,,Study/JOL,"Study Phase",,1720,,,-1,-1,,,,1
61001c31a2048dd7cd36d392,j4ds5gb9ib,"Mediated Recog Prolific",1,16,2023-05-09T23:39:17+00:00,2.5359098911285,5,versionC_stim.csv,ReadVersion_Recog.csv,"Read Recog",Read3,STRETCH,CLOTH,Study1,U,22,11,Study,User,-,,Study/JOL,"Study Phase",,2327,,,-1,-1,,,,1
61001c31a2048dd7cd36d392,j4ds5gb9ib,"Mediated Recog Prolific",1,17,2023-05-09T23:39:19+00:00,1.5762910842896,5,versionC_stim.csv,ReadVersion_Recog.csv,"Read Recog",Read3,SOON,BELT,Study1,U,31,13,Study,User,-,,Study/JOL,"Study Phase",,1360,,,-1,-1,,,,1
61001c31a2048dd7cd36d392,j4ds5gb9ib,"Mediated Recog Prolific",1,18,2023-05-09T23:39:21+00:00,2.2324678897858,5,versionC_stim.csv,ReadVersion_Recog.csv,"Read Recog",Read3,TEMPERATURE,MORNING,Study1,U,33,16,Study,User,-,,Study/JOL,"Study Phase",,2008,,,-1,-1,,,,1
61001c31a2048dd7cd36d392,j4ds5gb9ib,"Mediated Recog Prolific",1,19,2023-05-09T23:39:23+00:00,2.2411031723022,5,versionC_stim.csv,ReadVersion_Recog.csv,"Read Recog",Read3,SHELL,SHAKE,Study1,U,28,35,Study,User,-,,Study/JOL,"Study Phase",,2027,,,-1,-1,,,,1
61001c31a2048dd7cd36d392,j4ds5gb9ib,"Mediated Recog Prolific",1,20,2023-05-09T23:39:25+00:00,1.97736287117,5,versionC_stim.csv,ReadVersion_Recog.csv,"Read Recog",Read3,LISTEN,FICTION,Study1,U,29,34,Study,User,-,,Study/JOL,"Study Phase",,1764,,,-1,-1,,,,1
61001c31a2048dd7cd36d392,j4ds5gb9ib,"Mediated Recog Prolific",1,21,2023-05-09T23:39:27+00:00,1.3857190608978,5,versionC_stim.csv,ReadVersion_Recog.csv,"Read Recog",Read3,SWAN,BIRD,Study1,F,11,17,Study,User,-,,Study/JOL,"Study Phase",,1174,,,-1,-1,,,,1
61001c31a2048dd7cd36d392,j4ds5gb9ib,"Mediated Recog Prolific",1,22,2023-05-09T23:39:28+00:00,1.7114109992981,5,versionC_stim.csv,ReadVersion_Recog.csv,"Read Recog",Read3,WAGE,MONEY,Study1,F,7,9,Study,User,-,,Study/JOL,"Study Phase",,1494,,,-1,-1,,,,1
61001c31a2048dd7cd36d392,j4ds5gb9ib,"Mediated Recog Prolific",1,23,2023-05-09T23:39:31+00:00,2.6440649032593,5,versionC_stim.csv,ReadVersion_Recog.csv,"Read Recog",Read3,FUZZY,BANG,Study1,U,35,12,Study,User,-,,Study/JOL,"Study Phase",,2421,,,-1,-1,,,,1
61001c31a2048dd7cd36d392,j4ds5gb9ib,"Mediated Recog Prolific",1,24,2023-05-09T23:39:32+00:00,1.3172471523285,5,versionC_stim.csv,ReadVersion_Recog.csv,"Read Recog",Read3,LITTER,TRASH,Study1,F,6,24,Study,User,-,,Study/JOL,"Study Phase",,1081,,,-1,-1,,,,1
61001c31a2048dd7cd36d392,j4ds5gb9ib,"Mediated Recog Prolific",1,25,2023-05-09T23:39:34+00:00,1.8171038627625,5,versionC_stim.csv,ReadVersion_Recog.csv,"Read Recog",Read3,MULE,DONKEY,Study1,F,15,30,Study,User,-,,Study/JOL,"Study Phase",,1603,,,-1,-1,,,,1
61001c31a2048dd7cd36d392,j4ds5gb9ib,"Mediated Recog Prolific",1,26,2023-05-09T23:39:36+00:00,1.923388004303,5,versionC_stim.csv,ReadVersion_Recog.csv,"Read Recog",Read3,MAZE,PHONE,Study1,U,27,25,Study,User,-,,Study/JOL,"Study Phase",,1715,,,-1,-1,,,,1
61001c31a2048dd7cd36d392,j4ds5gb9ib,"Mediated Recog Prolific",1,27,2023-05-09T23:39:39+00:00,2.5395679473877,5,versionC_stim.csv,ReadVersion_Recog.csv,"Read Recog",Read3,HYGIENE,CLEAN,Study1,F,13,33,Study,User,-,,Study/JOL,"Study Phase",,2326,,,-1,-1,,,,1
61001c31a2048dd7cd36d392,j4ds5gb9ib,"Mediated Recog Prolific",1,28,2023-05-09T23:39:41+00:00,2.2058951854706,5,versionC_stim.csv,ReadVersion_Recog.csv,"Read Recog",Read3,SIGN,TICK,Study1,U,32,23,Study,User,-,,Study/JOL,"Study Phase",,2001,,,-1,-1,,,,1
61001c31a2048dd7cd36d392,j4ds5gb9ib,"Mediated Recog Prolific",1,29,2023-05-09T23:39:43+00:00,1.8927609920502,5,versionC_stim.csv,ReadVersion_Recog.csv,"Read Recog",Read3,KEYS,ROD,Study1,U,30,22,Study,User,-,,Study/JOL,"Study Phase",,1673,,,-1,-1,,,,1
61001c31a2048dd7cd36d392,j4ds5gb9ib,"Mediated Recog Prolific",1,30,2023-05-09T23:39:45+00:00,1.9514188766479,5,versionC_stim.csv,ReadVersion_Recog.csv,"Read Recog",Read3,ORCHID,FLOWER,Study1,F,19,29,Study,User,-,,Study/JOL,"Study Phase",,1735,,,-1,-1,,,,1
61001c31a2048dd7cd36d392,j4ds5gb9ib,"Mediated Recog Prolific",1,31,2023-05-09T23:39:46+00:00,1.4840230941772,5,versionC_stim.csv,ReadVersion_Recog.csv,"Read Recog",Read3,VEHICLE,CHARM,Study1,U,25,36,Study,User,-,,Study/JOL,"Study Phase",,1262,,,-1,-1,,,,1
61001c31a2048dd7cd36d392,j4ds5gb9ib,"Mediated Recog Prolific",1,32,2023-05-09T23:39:48+00:00,1.8172509670258,5,versionC_stim.csv,ReadVersion_Recog.csv,"Read Recog",Read3,AFFECTION,LOVE,Study1,F,16,15,Study,User,-,,Study/JOL,"Study Phase",,1604,,,-1,-1,,,,1
61001c31a2048dd7cd36d392,j4ds5gb9ib,"Mediated Recog Prolific",1,33,2023-05-09T23:39:50+00:00,1.7901480197906,5,versionC_stim.csv,ReadVersion_Recog.csv,"Read Recog",Read3,ROOT,PLANT,Study1,F,10,20,Study,User,-,,Study/JOL,"Study Phase",,1575,,,-1,-1,,,,1
61001c31a2048dd7cd36d392,j4ds5gb9ib,"Mediated Recog Prolific",1,34,2023-05-09T23:39:51+00:00,1.3734750747681,5,versionC_stim.csv,ReadVersion_Recog.csv,"Read Recog",Read3,SIP,DRINK,Study1,F,17,19,Study,User,-,,Study/JOL,"Study Phase",,1159,,,-1,-1,,,,1
61001c31a2048dd7cd36d392,j4ds5gb9ib,"Mediated Recog Prolific",1,35,2023-05-09T23:39:52+00:00,1.3697838783264,5,versionC_stim.csv,ReadVersion_Recog.csv,"Read Recog",Read3,CREDIT,CARD,Study1,F,18,21,Study,User,-,,Study/JOL,"Study Phase",,1160,,,-1,-1,,,,1
61001c31a2048dd7cd36d392,j4ds5gb9ib,"Mediated Recog Prolific",1,36,2023-05-09T23:39:55+00:00,2.3788359165192,5,versionC_stim.csv,ReadVersion_Recog.csv,"Read Recog",Read3,CRACKLE,ELECTION,Study1,U,24,28,Study,User,-,,Study/JOL,"Study Phase",,2171,,,-1,-1,,,,1
61001c31a2048dd7cd36d392,j4ds5gb9ib,"Mediated Recog Prolific",1,37,2023-05-09T23:39:56+00:00,1.5697910785675,5,versionC_stim.csv,ReadVersion_Recog.csv,"Read Recog",Read3,MEAT,KEYS,Study1,U,26,32,Study,User,-,,Study/JOL,"Study Phase",,1360,,,-1,-1,,,,1
61001c31a2048dd7cd36d392,j4ds5gb9ib,"Mediated Recog Prolific",1,38,2023-05-09T23:39:59+00:00,2.7179939746857,5,versionC_stim.csv,ReadVersion_Recog.csv,"Read Recog",Read3,SHERRIF,POLICE,BUFFER2,Buffer,37,38,Study,User,-,,Study/JOL,BUFFER2,,2506,,,-1,-1,,,,1
61001c31a2048dd7cd36d392,j4ds5gb9ib,"Mediated Recog Prolific",1,39,2023-05-09T23:40:01+00:00,1.6370689868927,5,versionC_stim.csv,ReadVersion_Recog.csv,"Read Recog",Read3,MOON,SPACE,BUFFER2,Buffer,39,40,Study,User,-,,Study/JOL,BUFFER2,,1420,,,-1,-1,,,,1
61001c31a2048dd7cd36d392,j4ds5gb9ib,"Mediated Recog Prolific",1,40,2023-05-09T23:40:03+00:00,1.8967790603638,5,versionC_stim.csv,ReadVersion_Recog.csv,"Read Recog",Read3,MALT,CHOCOLATE,BUFFER2,Buffer,38,37,Study,User,-,,Study/JOL,BUFFER2,,1675,,,-1,-1,,,,1
61001c31a2048dd7cd36d392,j4ds5gb9ib,"Mediated Recog Prolific",1,41,2023-05-09T23:40:04+00:00,1.6372630596161,5,versionC_stim.csv,ReadVersion_Recog.csv,"Read Recog",Read3,GEESE,GOOSE,BUFFER2,Buffer,36,41,Study,User,-,,Study/JOL,BUFFER2,,1414,,,-1,-1,,,,1
61001c31a2048dd7cd36d392,j4ds5gb9ib,"Mediated Recog Prolific",1,42,2023-05-09T23:40:06+00:00,1.4032518863678,5,versionC_stim.csv,ReadVersion_Recog.csv,"Read Recog",Read3,THING,STUFF,BUFFER2,Buffer,40,39,Study,User,-,,Study/JOL,BUFFER2,,1190,,,-1,-1,,,,1
61001c31a2048dd7cd36d392,j4ds5gb9ib,"Mediated Recog Prolific",1,43,2023-05-09T23:40:07+00:00,1.5763900279999,5,versionC_stim.csv,ReadVersion_Recog.csv,"Read Recog",Read3,,,,,,0,Instruct,User,-,"You have completed this section. Please press Enter.",Filler_Instruction,Instruct2,,1364,,,-1,-1,,,,1
61001c31a2048dd7cd36d392,j4ds5gb9ib,"Mediated Recog Prolific",1,44,2023-05-09T23:42:08+00:00,120.40251994133,5,versionC_stim.csv,ReadVersion_Recog.csv,"Read Recog",Read3,,,,,,0,FreeRecall,120,120,"Please list the 50 US states in alphabetical order. The task will automatically advance to the next screen after two minutes.",,Filler1,,120003,"Alabama, Alaska, Arizona, Arkansas, California, Colorado, Connecticut, Delaware, Florida, Georgia, Hawaii, Idaho, Illinois, Indiana, Iowa, Kansas, Kentucky, Louisiana, Maine, Maryland, Massachusetts, Michigan, Minnesota, Mississippi, Missouri, Montana, Nebraska, Nevada, New Hampshire, New Jersey, New Mexico, New York, North Carolina, North Dakota, Ohio, Oregon, Oklahoma, Pennsylvania, Rhode Island, South Carolina, South Dakota, Tennessee, Texas",0,4669,119965,0,0,,1
61001c31a2048dd7cd36d392,j4ds5gb9ib,"Mediated Recog Prolific",1,45,2023-05-09T23:42:19+00:00,11.572210073471,5,versionC_stim.csv,ReadVersion_Recog.csv,"Read Recog",Read3,,,,,,0,Instruct,User,10,"Your memory will now be tested. You will be presented with a series of words that may or may not have previously been presented alongisde another word. If the word on the screen was previously studied, please select YES. If the word was not studied, select NO. PLEASE DO NOT SKIP ITEMS! Click next when you are ready to begin.",,Instruc7982154d,,11171,,,-1,-1,,,,1
61001c31a2048dd7cd36d392,j4ds5gb9ib,"Mediated Recog Prolific",1,46,2023-05-09T23:42:23+00:00,3.6509721279144,5,versionC_stim.csv,ReadVersion_Recog.csv,"Read Recog",Read3,,FLOWER,RECOG,Presented,84,76,Likert,User,1,"Was this item previously studied?",PRESENTED,Recog,1::2,3430,YES,22.222222222222,-1,-1,0,0,,1
61001c31a2048dd7cd36d392,j4ds5gb9ib,"Mediated Recog Prolific",1,47,2023-05-09T23:42:25+00:00,2.3528478145599,5,versionC_stim.csv,ReadVersion_Recog.csv,"Read Recog",Read3,,SENTENCE,RECOG,Presented,77,46,Likert,User,1,"Was this item previously studied?",CONTROL,Recog,1::2,2136,YES,18.181818181818,-1,-1,0,0,,1
61001c31a2048dd7cd36d392,j4ds5gb9ib,"Mediated Recog Prolific",1,48,2023-05-09T23:42:28+00:00,2.3864560127258,5,versionC_stim.csv,ReadVersion_Recog.csv,"Read Recog",Read3,,HEAD,RECOG,Presented,73,83,Likert,User,1,"Was this item previously studied?",PRESENTED,Recog,1::2,2172,YES,28.571428571429,-1,-1,0,0,,1
61001c31a2048dd7cd36d392,j4ds5gb9ib,"Mediated Recog Prolific",1,49,2023-05-09T23:42:30+00:00,2.34410405159,5,versionC_stim.csv,ReadVersion_Recog.csv,"Read Recog",Read3,,STING,RECOG,CONTROL,50,51,Likert,User,1,"Was this item previously studied?",CONTROL,Recog,1::2,2131,NO,28.571428571429,-1,-1,0,0,,1
61001c31a2048dd7cd36d392,j4ds5gb9ib,"Mediated Recog Prolific",1,50,2023-05-09T23:42:40+00:00,10.309703111649,5,versionC_stim.csv,ReadVersion_Recog.csv,"Read Recog",Read3,,SLEEP,RECOG,Presented,79,61,Likert,User,1,"Was this item previously studied?",CONTROL,Recog,1::2,9934,YES,25,-1,-1,0,0,,1
61001c31a2048dd7cd36d392,j4ds5gb9ib,"Mediated Recog Prolific",1,51,2023-05-09T23:42:42+00:00,2.1302628517151,5,versionC_stim.csv,ReadVersion_Recog.csv,"Read Recog",Read3,,CUT,RECOG,CONTROL,42,71,Likert,User,1,"Was this item previously studied?",CONTROL,Recog,1::2,1903,NO,0,-1,-1,0,0,,1
61001c31a2048dd7cd36d392,j4ds5gb9ib,"Mediated Recog Prolific",1,52,2023-05-09T23:42:44+00:00,1.8201129436493,5,versionC_stim.csv,ReadVersion_Recog.csv,"Read Recog",Read3,,SMELL,RECOG,CONTROL,48,54,Likert,User,1,"Was this item previously studied?",CONTROL,Recog,1::2,1606,NO,0,-1,-1,0,0,,1
61001c31a2048dd7cd36d392,j4ds5gb9ib,"Mediated Recog Prolific",1,53,2023-05-09T23:42:49+00:00,4.9202921390533,5,versionC_stim.csv,ReadVersion_Recog.csv,"Read Recog",Read3,,STEAK,RECOG,Presented,88,69,Likert,User,1,"Was this item previously studied?",CONTROL,Recog,1::2,4530,YES,25,-1,-1,0,0,,1
61001c31a2048dd7cd36d392,j4ds5gb9ib,"Mediated Recog Prolific",1,54,2023-05-09T23:42:52+00:00,2.4996039867401,5,versionC_stim.csv,ReadVersion_Recog.csv,"Read Recog",Read3,,DRINK,RECOG,Presented,82,67,Likert,User,1,"Was this item previously studied?",CONTROL,Recog,1::2,1937,YES,0,-1,-1,0,0,,1
61001c31a2048dd7cd36d392,j4ds5gb9ib,"Mediated Recog Prolific",1,55,2023-05-09T23:42:55+00:00,3.0462319850922,5,versionC_stim.csv,ReadVersion_Recog.csv,"Read Recog",Read3,,LOVE,RECOG,Presented,81,78,Likert,User,1,"Was this item previously studied?",PRESENTED,Recog,1::2,2830,YES,28.571428571429,-1,-1,0,0,,1
61001c31a2048dd7cd36d392,j4ds5gb9ib,"Mediated Recog Prolific",1,56,2023-05-09T23:42:57+00:00,2.6462578773499,5,versionC_stim.csv,ReadVersion_Recog.csv,"Read Recog",Read3,,MONEY,RECOG,Presented,72,43,Likert,User,1,"Was this item previously studied?",CONTROL,Recog,1::2,2423,NO,28.571428571429,-1,-1,0,0,,1
61001c31a2048dd7cd36d392,j4ds5gb9ib,"Mediated Recog Prolific",1,57,2023-05-09T23:42:59+00:00,1.9879901409149,5,versionC_stim.csv,ReadVersion_Recog.csv,"Read Recog",Read3,,FIGHT,RECOG,CONTROL,51,44,Likert,User,1,"Was this item previously studied?",CONTROL,Recog,1::2,1764,NO,0,-1,-1,0,0,,1
61001c31a2048dd7cd36d392,j4ds5gb9ib,"Mediated Recog Prolific",1,58,2023-05-09T23:43:01+00:00,1.9002730846405,5,versionC_stim.csv,ReadVersion_Recog.csv,"Read Recog",Read3,,CHILDREN,RECOG,CONTROL,69,48,Likert,User,1,"Was this item previously studied?",CONTROL,Recog,1::2,1660,NO,20,-1,-1,0,0,,1
61001c31a2048dd7cd36d392,j4ds5gb9ib,"Mediated Recog Prolific",1,59,2023-05-09T23:43:03+00:00,1.9582989215851,5,versionC_stim.csv,ReadVersion_Recog.csv,"Read Recog",Read3,,SACK,RECOG,CONTROL,62,65,Likert,User,1,"Was this item previously studied?",CONTROL,Recog,1::2,1722,NO,0,-1,-1,0,0,,1
61001c31a2048dd7cd36d392,j4ds5gb9ib,"Mediated Recog Prolific",1,60,2023-05-09T23:43:08+00:00,5.1835770606995,5,versionC_stim.csv,ReadVersion_Recog.csv,"Read Recog",Read3,,PLANT,RECOG,Presented,75,75,Likert,User,1,"Was this item previously studied?",PRESENTED,Recog,1::2,3959,YES,0,-1,-1,0,0,,1
61001c31a2048dd7cd36d392,j4ds5gb9ib,"Mediated Recog Prolific",1,61,2023-05-09T23:43:11+00:00,2.388396024704,5,versionC_stim.csv,ReadVersion_Recog.csv,"Read Recog",Read3,,PLANT,RECOG,CONTROL,41,84,Likert,User,1,"Was this item previously studied?",PRESENTED,Recog,1::2,2130,YES,0,-1,-1,0,0,,1
61001c31a2048dd7cd36d392,j4ds5gb9ib,"Mediated Recog Prolific",1,62,2023-05-09T23:43:13+00:00,2.0987458229065,5,versionC_stim.csv,ReadVersion_Recog.csv,"Read Recog",Read3,,PHONE,RECOG,Presented,92,82,Likert,User,1,"Was this item previously studied?",PRESENTED,Recog,1::2,1876,NO,28.571428571429,-1,-1,0,0,,1
61001c31a2048dd7cd36d392,j4ds5gb9ib,"Mediated Recog Prolific",1,63,2023-05-09T23:43:15+00:00,2.5649030208588,5,versionC_stim.csv,ReadVersion_Recog.csv,"Read Recog",Read3,,ELECTION,RECOG,Presented,89,74,Likert,User,1,"Was this item previously studied?",PRESENTED,Recog,1::2,2348,YES,18.181818181818,-1,-1,0,0,,1
61001c31a2048dd7cd36d392,j4ds5gb9ib,"Mediated Recog Prolific",1,64,2023-05-09T23:43:19+00:00,3.0791721343994,5,versionC_stim.csv,ReadVersion_Recog.csv,"Read Recog",Read3,,BUSINESS,RECOG,CONTROL,64,89,Likert,User,1,"Was this item previously studied?",PRESENTED,Recog,1::2,2860,NO,20,-1,-1,0,0,,1
61001c31a2048dd7cd36d392,j4ds5gb9ib,"Mediated Recog Prolific",1,65,2023-05-09T23:43:21+00:00,2.1520628929138,5,versionC_stim.csv,ReadVersion_Recog.csv,"Read Recog",Read3,,FIRE,RECOG,CONTROL,46,77,Likert,User,1,"Was this item previously studied?",PRESENTED,Recog,1::2,1933,NO,0,-1,-1,0,0,,1
61001c31a2048dd7cd36d392,j4ds5gb9ib,"Mediated Recog Prolific",1,66,2023-05-09T23:43:23+00:00,2.3905880451202,5,versionC_stim.csv,ReadVersion_Recog.csv,"Read Recog",Read3,,HORN,RECOG,CONTROL,63,95,Likert,User,1,"Was this item previously studied?",PRESENTED,Recog,1::2,2178,NO,33.333333333333,-1,-1,0,0,,1
61001c31a2048dd7cd36d392,j4ds5gb9ib,"Mediated Recog Prolific",1,67,2023-05-09T23:43:25+00:00,2.0922420024872,5,versionC_stim.csv,ReadVersion_Recog.csv,"Read Recog",Read3,,TICK,RECOG,Presented,97,79,Likert,User,1,"Was this item previously studied?",PRESENTED,Recog,1::2,1861,YES,0,-1,-1,0,0,,1
61001c31a2048dd7cd36d392,j4ds5gb9ib,"Mediated Recog Prolific",1,68,2023-05-09T23:43:27+00:00,1.9846088886261,5,versionC_stim.csv,ReadVersion_Recog.csv,"Read Recog",Read3,,WOLF,RECOG,CONTROL,58,59,Likert,User,1,"Was this item previously studied?",CONTROL,Recog,1::2,1767,NO,33.333333333333,-1,-1,0,0,,1
61001c31a2048dd7cd36d392,j4ds5gb9ib,"Mediated Recog Prolific",1,69,2023-05-09T23:43:30+00:00,2.5874891281128,5,versionC_stim.csv,ReadVersion_Recog.csv,"Read Recog",Read3,,FISH,RECOG,Presented,85,45,Likert,User,1,"Was this item previously studied?",CONTROL,Recog,1::2,2368,YES,28.571428571429,-1,-1,0,0,,1
61001c31a2048dd7cd36d392,j4ds5gb9ib,"Mediated Recog Prolific",1,70,2023-05-09T23:43:33+00:00,3.2280230522156,5,versionC_stim.csv,ReadVersion_Recog.csv,"Read Recog",Read3,,MORNING,RECOG,Presented,98,50,Likert,User,1,"Was this item previously studied?",CONTROL,Recog,1::2,3005,YES,0,-1,-1,0,0,,1
61001c31a2048dd7cd36d392,j4ds5gb9ib,"Mediated Recog Prolific",1,71,2023-05-09T23:43:36+00:00,3.1398940086365,5,versionC_stim.csv,ReadVersion_Recog.csv,"Read Recog",Read3,,HAND,RECOG,Presented,99,63,Likert,User,1,"Was this item previously studied?",CONTROL,Recog,1::2,2920,YES,0,-1,-1,0,0,,1
61001c31a2048dd7cd36d392,j4ds5gb9ib,"Mediated Recog Prolific",1,72,2023-05-09T23:43:42+00:00,5.9908118247986,5,versionC_stim.csv,ReadVersion_Recog.csv,"Read Recog",Read3,,BANG,RECOG,Presented,100,52,Likert,User,1,"Was this item previously studied?",CONTROL,Recog,1::2,5609,YES,0,-1,-1,0,0,,1
61001c31a2048dd7cd36d392,j4ds5gb9ib,"Mediated Recog Prolific",1,73,2023-05-09T23:43:44+00:00,2.1856319904327,5,versionC_stim.csv,ReadVersion_Recog.csv,"Read Recog",Read3,,RIDDLE,RECOG,CONTROL,60,93,Likert,User,1,"Was this item previously studied?",PRESENTED,Recog,1::2,1985,NO,0,-1,-1,0,0,,1
61001c31a2048dd7cd36d392,j4ds5gb9ib,"Mediated Recog Prolific",1,74,2023-05-09T23:43:46+00:00,2.1875331401825,5,versionC_stim.csv,ReadVersion_Recog.csv,"Read Recog",Read3,,FICTION,RECOG,Presented,94,98,Likert,User,1,"Was this item previously studied?",PRESENTED,Recog,1::2,1973,YES,0,-1,-1,0,0,,1
61001c31a2048dd7cd36d392,j4ds5gb9ib,"Mediated Recog Prolific",1,75,2023-05-09T23:43:49+00:00,2.2093620300293,5,versionC_stim.csv,ReadVersion_Recog.csv,"Read Recog",Read3,,LEG,RECOG,CONTROL,70,92,Likert,User,1,"Was this item previously studied?",PRESENTED,Recog,1::2,1995,NO,0,-1,-1,0,0,,1
61001c31a2048dd7cd36d392,j4ds5gb9ib,"Mediated Recog Prolific",1,76,2023-05-09T23:43:51+00:00,1.9976058006287,5,versionC_stim.csv,ReadVersion_Recog.csv,"Read Recog",Read3,,BELT,RECOG,Presented,96,91,Likert,User,1,"Was this item previously studied?",PRESENTED,Recog,1::2,1786,YES,28.571428571429,-1,-1,0,0,,1
61001c31a2048dd7cd36d392,j4ds5gb9ib,"Mediated Recog Prolific",1,77,2023-05-09T23:43:56+00:00,5.0951821804047,5,versionC_stim.csv,ReadVersion_Recog.csv,"Read Recog",Read3,,CLUTTER,RECOG,CONTROL,61,101,Likert,User,1,"Was this item previously studied?",PRESENTED,Recog,1::2,4712,YES,20,-1,-1,0,0,,1
61001c31a2048dd7cd36d392,j4ds5gb9ib,"Mediated Recog Prolific",1,78,2023-05-09T23:43:58+00:00,2.0765738487244,5,versionC_stim.csv,ReadVersion_Recog.csv,"Read Recog",Read3,,CLEAN,RECOG,Presented,78,97,Likert,User,1,"Was this item previously studied?",PRESENTED,Recog,1::2,1848,YES,25,-1,-1,0,0,,1
61001c31a2048dd7cd36d392,j4ds5gb9ib,"Mediated Recog Prolific",1,79,2023-05-09T23:44:00+00:00,2.2623591423035,5,versionC_stim.csv,ReadVersion_Recog.csv,"Read Recog",Read3,,SHAKE,RECOG,Presented,93,47,Likert,User,1,"Was this item previously studied?",CONTROL,Recog,1::2,2049,YES,25,-1,-1,0,0,,1
61001c31a2048dd7cd36d392,j4ds5gb9ib,"Mediated Recog Prolific",1,80,2023-05-09T23:44:02+00:00,2.1495740413666,5,versionC_stim.csv,ReadVersion_Recog.csv,"Read Recog",Read3,,HAMMER,RECOG,CONTROL,43,94,Likert,User,1,"Was this item previously studied?",PRESENTED,Recog,1::2,1916,NO,0,-1,-1,0,0,,1
61001c31a2048dd7cd36d392,j4ds5gb9ib,"Mediated Recog Prolific",1,81,2023-05-09T23:44:09+00:00,6.7539899349213,5,versionC_stim.csv,ReadVersion_Recog.csv,"Read Recog",Read3,,COW,RECOG,Presented,80,87,Likert,User,1,"Was this item previously studied?",PRESENTED,Recog,1::2,6362,YES,0,-1,-1,0,0,,1
61001c31a2048dd7cd36d392,j4ds5gb9ib,"Mediated Recog Prolific",1,82,2023-05-09T23:44:11+00:00,2.4314968585968,5,versionC_stim.csv,ReadVersion_Recog.csv,"Read Recog",Read3,,CARD,RECOG,Presented,83,68,Likert,User,1,"Was this item previously studied?",CONTROL,Recog,1::2,2201,NO,0,-1,-1,0,0,,1
61001c31a2048dd7cd36d392,j4ds5gb9ib,"Mediated Recog Prolific",1,83,2023-05-09T23:44:14+00:00,2.4214200973511,5,versionC_stim.csv,ReadVersion_Recog.csv,"Read Recog",Read3,,ROD,RECOG,Presented,95,70,Likert,User,1,"Was this item previously studied?",CONTROL,Recog,1::2,2200,YES,0,-1,-1,0,0,,1
61001c31a2048dd7cd36d392,j4ds5gb9ib,"Mediated Recog Prolific",1,84,2023-05-09T23:44:17+00:00,3.1134479045868,5,versionC_stim.csv,ReadVersion_Recog.csv,"Read Recog",Read3,,TRASH,RECOG,Presented,71,62,Likert,User,1,"Was this item previously studied?",CONTROL,Recog,1::2,2894,NO,0,-1,-1,0,0,,1
61001c31a2048dd7cd36d392,j4ds5gb9ib,"Mediated Recog Prolific",1,85,2023-05-09T23:44:19+00:00,2.2316901683807,5,versionC_stim.csv,ReadVersion_Recog.csv,"Read Recog",Read3,,DONKEY,RECOG,Presented,74,81,Likert,User,1,"Was this item previously studied?",PRESENTED,Recog,1::2,2014,YES,22.222222222222,-1,-1,0,0,,1
61001c31a2048dd7cd36d392,j4ds5gb9ib,"Mediated Recog Prolific",1,86,2023-05-09T23:44:22+00:00,2.3055429458618,5,versionC_stim.csv,ReadVersion_Recog.csv,"Read Recog",Read3,,BASEBALL,RECOG,CONTROL,49,49,Likert,User,1,"Was this item previously studied?",CONTROL,Recog,1::2,2094,NO,0,-1,-1,0,0,,1
61001c31a2048dd7cd36d392,j4ds5gb9ib,"Mediated Recog Prolific",1,87,2023-05-09T23:44:24+00:00,2.3294470310211,5,versionC_stim.csv,ReadVersion_Recog.csv,"Read Recog",Read3,,KEYS,RECOG,Presented,91,100,Likert,User,1,"Was this item previously studied?",PRESENTED,Recog,1::2,2113,YES,57.142857142857,-1,-1,0,0,,1
61001c31a2048dd7cd36d392,j4ds5gb9ib,"Mediated Recog Prolific",1,88,2023-05-09T23:44:26+00:00,2.1828770637512,5,versionC_stim.csv,ReadVersion_Recog.csv,"Read Recog",Read3,,OUNCE,RECOG,CONTROL,67,73,Likert,User,1,"Was this item previously studied?",PRESENTED,Recog,1::2,1966,NO,28.571428571429,-1,-1,0,0,,1
61001c31a2048dd7cd36d392,j4ds5gb9ib,"Mediated Recog Prolific",1,89,2023-05-09T23:44:28+00:00,2.0487129688263,5,versionC_stim.csv,ReadVersion_Recog.csv,"Read Recog",Read3,,BUG,RECOG,CONTROL,54,99,Likert,User,1,"Was this item previously studied?",PRESENTED,Recog,1::2,1830,NO,0,-1,-1,0,0,,1
61001c31a2048dd7cd36d392,j4ds5gb9ib,"Mediated Recog Prolific",1,90,2023-05-09T23:44:30+00:00,2.2093768119812,5,versionC_stim.csv,ReadVersion_Recog.csv,"Read Recog",Read3,,VASE,RECOG,CONTROL,56,90,Likert,User,1,"Was this item previously studied?",PRESENTED,Recog,1::2,1996,NO,0,-1,-1,0,0,,1
61001c31a2048dd7cd36d392,j4ds5gb9ib,"Mediated Recog Prolific",1,91,2023-05-09T23:44:32+00:00,2.0778751373291,5,versionC_stim.csv,ReadVersion_Recog.csv,"Read Recog",Read3,,ACCIDENT,RECOG,CONTROL,59,42,Likert,User,1,"Was this item previously studied?",CONTROL,Recog,1::2,1859,NO,20,-1,-1,0,0,,1
61001c31a2048dd7cd36d392,j4ds5gb9ib,"Mediated Recog Prolific",1,92,2023-05-09T23:44:34+00:00,1.9883859157562,5,versionC_stim.csv,ReadVersion_Recog.csv,"Read Recog",Read3,,MAROON,RECOG,Presented,86,66,Likert,User,1,"Was this item previously studied?",CONTROL,Recog,1::2,1779,YES,0,-1,-1,0,0,,1
61001c31a2048dd7cd36d392,j4ds5gb9ib,"Mediated Recog Prolific",1,93,2023-05-09T23:44:37+00:00,2.3571410179138,5,versionC_stim.csv,ReadVersion_Recog.csv,"Read Recog",Read3,,TOIL,RECOG,CONTROL,66,96,Likert,User,1,"Was this item previously studied?",PRESENTED,Recog,1::2,2148,NO,33.333333333333,-1,-1,0,0,,1
61001c31a2048dd7cd36d392,j4ds5gb9ib,"Mediated Recog Prolific",1,94,2023-05-09T23:44:39+00:00,2.4179210662842,5,versionC_stim.csv,ReadVersion_Recog.csv,"Read Recog",Read3,,WATER,RECOG,CONTROL,55,56,Likert,User,1,"Was this item previously studied?",CONTROL,Recog,1::2,2192,NO,0,-1,-1,0,0,,1
61001c31a2048dd7cd36d392,j4ds5gb9ib,"Mediated Recog Prolific",1,95,2023-05-09T23:44:44+00:00,4.422798871994,5,versionC_stim.csv,ReadVersion_Recog.csv,"Read Recog",Read3,,BIRD,RECOG,Presented,76,55,Likert,User,1,"Was this item previously studied?",CONTROL,Recog,1::2,4029,NO,0,-1,-1,0,0,,1
61001c31a2048dd7cd36d392,j4ds5gb9ib,"Mediated Recog Prolific",1,96,2023-05-09T23:44:46+00:00,2.3163859844208,5,versionC_stim.csv,ReadVersion_Recog.csv,"Read Recog",Read3,,CAR,RECOG,CONTROL,57,72,Likert,User,1,"Was this item previously studied?",PRESENTED,Recog,1::2,2068,YES,0,-1,-1,0,0,,1
61001c31a2048dd7cd36d392,j4ds5gb9ib,"Mediated Recog Prolific",1,97,2023-05-09T23:44:48+00:00,2.5204432010651,5,versionC_stim.csv,ReadVersion_Recog.csv,"Read Recog",Read3,,CLOTHES,RECOG,CONTROL,44,64,Likert,User,1,"Was this item previously studied?",CONTROL,Recog,1::2,2309,NO,22.222222222222,-1,-1,0,0,,1
61001c31a2048dd7cd36d392,j4ds5gb9ib,"Mediated Recog Prolific",1,98,2023-05-09T23:44:50+00:00,2.0368258953094,5,versionC_stim.csv,ReadVersion_Recog.csv,"Read Recog",Read3,,BRONZE,RECOG,CONTROL,68,80,Likert,User,1,"Was this item previously studied?",PRESENTED,Recog,1::2,1830,NO,25,-1,-1,0,0,,1
61001c31a2048dd7cd36d392,j4ds5gb9ib,"Mediated Recog Prolific",1,99,2023-05-09T23:44:52+00:00,2.0491940975189,5,versionC_stim.csv,ReadVersion_Recog.csv,"Read Recog",Read3,,CHARM,RECOG,Presented,90,85,Likert,User,1,"Was this item previously studied?",PRESENTED,Recog,1::2,1836,YES,0,-1,-1,0,0,,1
61001c31a2048dd7cd36d392,j4ds5gb9ib,"Mediated Recog Prolific",1,100,2023-05-09T23:44:55+00:00,2.0469808578491,5,versionC_stim.csv,ReadVersion_Recog.csv,"Read Recog",Read3,,CLOTH,RECOG,Presented,87,60,Likert,User,1,"Was this item previously studied?",CONTROL,Recog,1::2,1833,YES,0,-1,-1,0,0,,1
61001c31a2048dd7cd36d392,j4ds5gb9ib,"Mediated Recog Prolific",1,101,2023-05-09T23:44:57+00:00,2.1891579627991,5,versionC_stim.csv,ReadVersion_Recog.csv,"Read Recog",Read3,,COLD,RECOG,CONTROL,52,57,Likert,User,1,"Was this item previously studied?",CONTROL,Recog,1::2,1974,NO,33.333333333333,-1,-1,0,0,,1
61001c31a2048dd7cd36d392,j4ds5gb9ib,"Mediated Recog Prolific",1,102,2023-05-09T23:44:59+00:00,1.986349105835,5,versionC_stim.csv,ReadVersion_Recog.csv,"Read Recog",Read3,,COW,RECOG,CONTROL,53,86,Likert,User,1,"Was this item previously studied?",PRESENTED,Recog,1::2,1749,YES,0,-1,-1,0,0,,1
61001c31a2048dd7cd36d392,j4ds5gb9ib,"Mediated Recog Prolific",1,103,2023-05-09T23:45:04+00:00,5.1343319416046,5,versionC_stim.csv,ReadVersion_Recog.csv,"Read Recog",Read3,,PAPER,RECOG,CONTROL,47,53,Likert,User,1,"Was this item previously studied?",CONTROL,Recog,1::2,4750,NO,0,-1,-1,0,0,,1
61001c31a2048dd7cd36d392,j4ds5gb9ib,"Mediated Recog Prolific",1,104,2023-05-09T23:45:06+00:00,2.0475981235504,5,versionC_stim.csv,ReadVersion_Recog.csv,"Read Recog",Read3,,RED,RECOG,CONTROL,45,58,Likert,User,1,"Was this item previously studied?",CONTROL,Recog,1::2,1811,NO,0,-1,-1,0,0,,1
61001c31a2048dd7cd36d392,j4ds5gb9ib,"Mediated Recog Prolific",1,105,2023-05-09T23:45:08+00:00,2.2612619400024,5,versionC_stim.csv,ReadVersion_Recog.csv,"Read Recog",Read3,,HIDE,RECOG,CONTROL,65,88,Likert,User,1,"Was this item previously studied?",PRESENTED,Recog,1::2,2052,NO,0,-1,-1,0,0,,1
61001c31a2048dd7cd36d392,j4ds5gb9ib,"Mediated Recog Prolific",1,106,2023-05-09T23:45:10+00:00,1.6031539440155,5,versionC_stim.csv,ReadVersion_Recog.csv,"Read Recog",Read3,,,,,,0,Instruct,User,-,"You have completed this section. Please press Enter.",,Instruct7,,1382,,,-1,-1,,,,1
61001c31a2048dd7cd36d392,j4ds5gb9ib,"Mediated Recog Prolific",1,107,2023-05-09T23:45:12+00:00,1.9983041286469,5,versionC_stim.csv,ReadVersion_Recog.csv,"Read Recog",Read3,,,,,,0,Instruct,User,-,"The following screen will ask you a few questions abour your experience today. You must complete these questions to receive credit.",,Instruct8,,1790,,,-1,-1,,,,1
