Username,ID,ExperimentName,Session,Trial,Date,TimeDif,"Condition Number","Stimuli File","Order File","Condition Description","Condition Notes",Stimuli*Cue,Stimuli*Answer,Stimuli*Shuffle,"Stimuli*Stimuli Notes",Stimuli*Value,Procedure*Item,"Procedure*Trial Type","Procedure*Max Time","Procedure*Min Time",Procedure*Text,"Procedure*Procedure Notes",Procedure*Shuffle,Procedure*,Response*RT,Response*Response,Response*Accuracy,Response*RTfirst,Response*RTlast,Response*strictAcc,Response*lenientAcc,Response*focus,Response*Focus
ayannajones,qwg38gy4m2,"Mediated JOLs",1,1,2023-04-13T23:47:58+00:00,5.2344260215759,5,versionC_stim.csv,ReadVersion_Recog.csv,"Read Recog",Read3,,,,,,0,Instruct,-,5,"In this section, you will be presented with a series of word pairs. Please study each word pair! Your memory will be tested!",Initial_Instruct,Instruct1,,5136,,,-1,-1,,,,1
ayannajones,qwg38gy4m2,"Mediated JOLs",1,2,2023-04-13T23:47:59+00:00,1.0544638633728,5,versionC_stim.csv,ReadVersion_Recog.csv,"Read Recog",Read3,,,,,,0,Instruct,User,-,"You will now begin. Press Enter when you are ready to begin.",,Instruct16,,915,,,-1,-1,,,,1
ayannajones,qwg38gy4m2,"Mediated JOLs",1,3,2023-04-13T23:48:01+00:00,2.2164571285248,5,versionC_stim.csv,ReadVersion_Recog.csv,"Read Recog",Read3,TREES,GREEN,BUFFER1,Buffer,1,3,Study,User,-,,Study/JOL,BUFFER,,2088,,,-1,-1,,,,1
ayannajones,qwg38gy4m2,"Mediated JOLs",1,4,2023-04-13T23:48:31+00:00,29.702013969421,5,versionC_stim.csv,ReadVersion_Recog.csv,"Read Recog",Read3,SCARE,FRIGHT,BUFFER1,Buffer,4,5,Study,User,-,,Study/JOL,BUFFER,,29533,,,-1,-1,,,,1
ayannajones,qwg38gy4m2,"Mediated JOLs",1,5,2023-04-13T23:48:40+00:00,9.3179359436035,5,versionC_stim.csv,ReadVersion_Recog.csv,"Read Recog",Read3,PEANUT,BUTTER,BUFFER1,Buffer,3,6,Study,User,-,,Study/JOL,BUFFER,,9163,,,-1,-1,,,,1
ayannajones,qwg38gy4m2,"Mediated JOLs",1,6,2023-04-13T23:48:49+00:00,9.176390171051,5,versionC_stim.csv,ReadVersion_Recog.csv,"Read Recog",Read3,SPACE,JAM,BUFFER1,Buffer,5,4,Study,User,-,,Study/JOL,BUFFER,,9022,,,-1,-1,,,,1
ayannajones,qwg38gy4m2,"Mediated JOLs",1,7,2023-04-13T23:48:59+00:00,10.016965866089,5,versionC_stim.csv,ReadVersion_Recog.csv,"Read Recog",Read3,PITCHER,CATCHER,BUFFER1,Buffer,2,2,Study,User,-,,Study/JOL,BUFFER,,9865,,,-1,-1,,,,1
ayannajones,qwg38gy4m2,"Mediated JOLs",1,8,2023-04-13T23:49:05+00:00,5.7199771404266,5,versionC_stim.csv,ReadVersion_Recog.csv,"Read Recog",Read3,BIRTHDAY,PIE,Study1,M,9,51,Study,User,-,,Study/JOL,"Study Phase",,5558,,,-1,-1,,,,1
ayannajones,qwg38gy4m2,"Mediated JOLs",1,9,2023-04-13T23:49:11+00:00,6.1240518093109,5,versionC_stim.csv,ReadVersion_Recog.csv,"Read Recog",Read3,SWAN,BIRD,Study1,F,26,47,Study,User,-,,Study/JOL,"Study Phase",,5839,,,-1,-1,,,,1
ayannajones,qwg38gy4m2,"Mediated JOLs",1,10,2023-04-13T23:49:21+00:00,9.9018630981445,5,versionC_stim.csv,ReadVersion_Recog.csv,"Read Recog",Read3,SOON,BELT,Study1,U,46,11,Study,User,-,,Study/JOL,"Study Phase",,9756,,,-1,-1,,,,1
ayannajones,qwg38gy4m2,"Mediated JOLs",1,11,2023-04-13T23:49:28+00:00,6.6656610965729,5,versionC_stim.csv,ReadVersion_Recog.csv,"Read Recog",Read3,SCALP,HEAD,Study1,F,23,50,Study,User,-,,Study/JOL,"Study Phase",,6517,,,-1,-1,,,,1
ayannajones,qwg38gy4m2,"Mediated JOLs",1,12,2023-04-13T23:49:35+00:00,6.8824729919434,5,versionC_stim.csv,ReadVersion_Recog.csv,"Read Recog",Read3,VEHICLE,CHARM,Study1,U,40,38,Study,User,-,,Study/JOL,"Study Phase",,6725,,,-1,-1,,,,1
ayannajones,qwg38gy4m2,"Mediated JOLs",1,13,2023-04-13T23:49:44+00:00,8.8777039051056,5,versionC_stim.csv,ReadVersion_Recog.csv,"Read Recog",Read3,CEILING,CARPET,Study1,M,15,44,Study,User,-,,Study/JOL,"Study Phase",,8731,,,-1,-1,,,,1
ayannajones,qwg38gy4m2,"Mediated JOLs",1,14,2023-04-13T23:49:56+00:00,12.22677397728,5,versionC_stim.csv,ReadVersion_Recog.csv,"Read Recog",Read3,BAT,BOUNCE,Study1,M,12,16,Study,User,-,,Study/JOL,"Study Phase",,12065,,,-1,-1,,,,1
ayannajones,qwg38gy4m2,"Mediated JOLs",1,15,2023-04-13T23:50:01+00:00,5.6077871322632,5,versionC_stim.csv,ReadVersion_Recog.csv,"Read Recog",Read3,LISTEN,FICTION,Study1,U,44,22,Study,User,-,,Study/JOL,"Study Phase",,5443,,,-1,-1,,,,1
ayannajones,qwg38gy4m2,"Mediated JOLs",1,16,2023-04-13T23:50:09+00:00,7.3220858573914,5,versionC_stim.csv,ReadVersion_Recog.csv,"Read Recog",Read3,TUNA,FISH,Study1,F,35,24,Study,User,-,,Study/JOL,"Study Phase",,7166,,,-1,-1,,,,1
ayannajones,qwg38gy4m2,"Mediated JOLs",1,17,2023-04-13T23:50:21+00:00,12.490724086761,5,versionC_stim.csv,ReadVersion_Recog.csv,"Read Recog",Read3,MULE,DONKEY,Study1,F,24,28,Study,User,-,,Study/JOL,"Study Phase",,12331,,,-1,-1,,,,1
ayannajones,qwg38gy4m2,"Mediated JOLs",1,18,2023-04-13T23:50:32+00:00,11.090191841125,5,versionC_stim.csv,ReadVersion_Recog.csv,"Read Recog",Read3,MAZE,PHONE,Study1,U,42,10,Study,User,-,,Study/JOL,"Study Phase",,10951,,,-1,-1,,,,1
ayannajones,qwg38gy4m2,"Mediated JOLs",1,19,2023-04-13T23:50:42+00:00,9.5802772045135,5,versionC_stim.csv,ReadVersion_Recog.csv,"Read Recog",Read3,SIP,DRINK,Study1,F,32,30,Study,User,-,,Study/JOL,"Study Phase",,9116,,,-1,-1,,,,1
ayannajones,qwg38gy4m2,"Mediated JOLs",1,20,2023-04-13T23:51:02+00:00,19.805386781693,5,versionC_stim.csv,ReadVersion_Recog.csv,"Read Recog",Read3,CRY,BOTTLE,Study1,M,16,15,Study,User,-,,Study/JOL,"Study Phase",,19634,,,-1,-1,,,,1
ayannajones,qwg38gy4m2,"Mediated JOLs",1,21,2023-04-13T23:51:17+00:00,15.315041065216,5,versionC_stim.csv,ReadVersion_Recog.csv,"Read Recog",Read3,HYGIENE,CLEAN,Study1,F,28,40,Study,User,-,,Study/JOL,"Study Phase",,15154,,,-1,-1,,,,1
ayannajones,qwg38gy4m2,"Mediated JOLs",1,22,2023-04-13T23:51:30+00:00,12.7583360672,5,versionC_stim.csv,ReadVersion_Recog.csv,"Read Recog",Read3,DAY,DARK,Study1,M,18,25,Study,User,-,,Study/JOL,"Study Phase",,12602,,,-1,-1,,,,1
ayannajones,qwg38gy4m2,"Mediated JOLs",1,23,2023-04-13T23:51:39+00:00,8.7141928672791,5,versionC_stim.csv,ReadVersion_Recog.csv,"Read Recog",Read3,HARD,COTTON,Study1,M,20,14,Study,User,-,,Study/JOL,"Study Phase",,8279,,,-1,-1,,,,1
ayannajones,qwg38gy4m2,"Mediated JOLs",1,24,2023-04-13T23:51:46+00:00,7.3069841861725,5,versionC_stim.csv,ReadVersion_Recog.csv,"Read Recog",Read3,WAGE,MONEY,Study1,F,22,36,Study,User,-,,Study/JOL,"Study Phase",,7162,,,-1,-1,,,,1
ayannajones,qwg38gy4m2,"Mediated JOLs",1,25,2023-04-13T23:51:51+00:00,4.9519789218903,5,versionC_stim.csv,ReadVersion_Recog.csv,"Read Recog",Read3,WAR,QUIET,Study1,M,8,29,Study,User,-,,Study/JOL,"Study Phase",,4797,,,-1,-1,,,,1
ayannajones,qwg38gy4m2,"Mediated JOLs",1,26,2023-04-13T23:51:56+00:00,5.5294868946075,5,versionC_stim.csv,ReadVersion_Recog.csv,"Read Recog",Read3,MULE,DONKEY,Study1,F,30,35,Study,User,-,,Study/JOL,"Study Phase",,5379,,,-1,-1,,,,1
ayannajones,qwg38gy4m2,"Mediated JOLs",1,27,2023-04-13T23:52:02+00:00,5.2779071331024,5,versionC_stim.csv,ReadVersion_Recog.csv,"Read Recog",Read3,TREE,SYRUP,Study1,M,11,7,Study,User,-,,Study/JOL,"Study Phase",,5131,,,-1,-1,,,,1
ayannajones,qwg38gy4m2,"Mediated JOLs",1,28,2023-04-13T23:52:06+00:00,4.0118088722229,5,versionC_stim.csv,ReadVersion_Recog.csv,"Read Recog",Read3,WEDDING,FINGER,Study1,M,17,27,Study,User,-,,Study/JOL,"Study Phase",,3890,,,-1,-1,,,,1
ayannajones,qwg38gy4m2,"Mediated JOLs",1,29,2023-04-13T23:52:11+00:00,5.6139230728149,5,versionC_stim.csv,ReadVersion_Recog.csv,"Read Recog",Read3,CAKE,HAND,Study1,U,49,42,Study,User,-,,Study/JOL,"Study Phase",,5440,,,-1,-1,,,,1
ayannajones,qwg38gy4m2,"Mediated JOLs",1,30,2023-04-13T23:52:35+00:00,23.961993932724,5,versionC_stim.csv,ReadVersion_Recog.csv,"Read Recog",Read3,ORCHID,FLOWER,Study1,F,34,31,Study,User,-,,Study/JOL,"Study Phase",,23807,,,-1,-1,,,,1
ayannajones,qwg38gy4m2,"Mediated JOLs",1,31,2023-04-13T23:52:41+00:00,5.3951032161713,5,versionC_stim.csv,ReadVersion_Recog.csv,"Read Recog",Read3,LION,STRIPES,Study1,M,6,39,Study,User,-,,Study/JOL,"Study Phase",,5253,,,-1,-1,,,,1
ayannajones,qwg38gy4m2,"Mediated JOLs",1,32,2023-04-13T23:52:48+00:00,7.6866018772125,5,versionC_stim.csv,ReadVersion_Recog.csv,"Read Recog",Read3,MIRROR,MAROON,Study1,U,36,13,Study,User,-,,Study/JOL,"Study Phase",,7522,,,-1,-1,,,,1
ayannajones,qwg38gy4m2,"Mediated JOLs",1,33,2023-04-13T23:52:54+00:00,5.3090400695801,5,versionC_stim.csv,ReadVersion_Recog.csv,"Read Recog",Read3,NAP,SLEEP,Study1,F,29,9,Study,User,-,,Study/JOL,"Study Phase",,5059,,,-1,-1,,,,1
ayannajones,qwg38gy4m2,"Mediated JOLs",1,34,2023-04-13T23:53:06+00:00,12.843292951584,5,versionC_stim.csv,ReadVersion_Recog.csv,"Read Recog",Read3,CRACKLE,ELECTION,Study1,U,39,37,Study,User,-,,Study/JOL,"Study Phase",,12685,,,-1,-1,,,,1
ayannajones,qwg38gy4m2,"Mediated JOLs",1,35,2023-04-13T23:53:11+00:00,4.4266369342804,5,versionC_stim.csv,ReadVersion_Recog.csv,"Read Recog",Read3,TOOTH,HAIR,Study1,M,19,21,Study,User,-,,Study/JOL,"Study Phase",,4258,,,-1,-1,,,,1
ayannajones,qwg38gy4m2,"Mediated JOLs",1,36,2023-04-13T23:53:17+00:00,6.1686501502991,5,versionC_stim.csv,ReadVersion_Recog.csv,"Read Recog",Read3,CREDIT,CARD,Study1,F,33,8,Study,User,-,,Study/JOL,"Study Phase",,6010,,,-1,-1,,,,1
ayannajones,qwg38gy4m2,"Mediated JOLs",1,37,2023-04-13T23:53:27+00:00,10.301652908325,5,versionC_stim.csv,ReadVersion_Recog.csv,"Read Recog",Read3,KEYS,ROD,Study1,U,45,49,Study,User,-,,Study/JOL,"Study Phase",,10132,,,-1,-1,,,,1
ayannajones,qwg38gy4m2,"Mediated JOLs",1,38,2023-04-13T23:53:32+00:00,5.0762250423431,5,versionC_stim.csv,ReadVersion_Recog.csv,"Read Recog",Read3,SIGN,TICK,Study1,U,47,20,Study,User,-,,Study/JOL,"Study Phase",,4932,,,-1,-1,,,,1
ayannajones,qwg38gy4m2,"Mediated JOLs",1,39,2023-04-13T23:53:48+00:00,15.837709903717,5,versionC_stim.csv,ReadVersion_Recog.csv,"Read Recog",Read3,ROUGH,SILK,Study1,M,10,43,Study,User,-,,Study/JOL,"Study Phase",,15661,,,-1,-1,,,,1
ayannajones,qwg38gy4m2,"Mediated JOLs",1,40,2023-04-13T23:53:58+00:00,9.3593640327454,5,versionC_stim.csv,ReadVersion_Recog.csv,"Read Recog",Read3,TEMPERATURE,MORNING,Study1,U,48,34,Study,User,-,,Study/JOL,"Study Phase",,9202,,,-1,-1,,,,1
ayannajones,qwg38gy4m2,"Mediated JOLs",1,41,2023-04-13T23:54:02+00:00,4.8679170608521,5,versionC_stim.csv,ReadVersion_Recog.csv,"Read Recog",Read3,SHELL,SHAKE,Study1,U,43,46,Study,User,-,,Study/JOL,"Study Phase",,4729,,,-1,-1,,,,1
ayannajones,qwg38gy4m2,"Mediated JOLs",1,42,2023-04-13T23:54:08+00:00,5.9395909309387,5,versionC_stim.csv,ReadVersion_Recog.csv,"Read Recog",Read3,CIRCLE,DANCE,Study1,M,13,26,Study,User,-,,Study/JOL,"Study Phase",,5770,,,-1,-1,,,,1
ayannajones,qwg38gy4m2,"Mediated JOLs",1,43,2023-04-13T23:54:16+00:00,7.2447071075439,5,versionC_stim.csv,ReadVersion_Recog.csv,"Read Recog",Read3,GIVE,STEAK,Study1,U,38,32,Study,User,-,,Study/JOL,"Study Phase",,7086,,,-1,-1,,,,1
ayannajones,qwg38gy4m2,"Mediated JOLs",1,44,2023-04-13T23:54:21+00:00,5.2472589015961,5,versionC_stim.csv,ReadVersion_Recog.csv,"Read Recog",Read3,FUZZY,BANG,Study1,U,50,33,Study,User,-,,Study/JOL,"Study Phase",,5114,,,-1,-1,,,,1
ayannajones,qwg38gy4m2,"Mediated JOLs",1,45,2023-04-13T23:54:26+00:00,4.8960309028625,5,versionC_stim.csv,ReadVersion_Recog.csv,"Read Recog",Read3,AFFECTION,LOVE,Study1,F,31,45,Study,User,-,,Study/JOL,"Study Phase",,4742,,,-1,-1,,,,1
ayannajones,qwg38gy4m2,"Mediated JOLs",1,46,2023-04-13T23:54:33+00:00,7.6910450458527,5,versionC_stim.csv,ReadVersion_Recog.csv,"Read Recog",Read3,WORD,SENTENCE,Study1,F,27,18,Study,User,-,,Study/JOL,"Study Phase",,7533,,,-1,-1,,,,1
ayannajones,qwg38gy4m2,"Mediated JOLs",1,47,2023-04-13T23:54:39+00:00,5.4833509922028,5,versionC_stim.csv,ReadVersion_Recog.csv,"Read Recog",Read3,STRETCH,CLOTH,Study1,U,37,17,Study,User,-,,Study/JOL,"Study Phase",,5320,,,-1,-1,,,,1
ayannajones,qwg38gy4m2,"Mediated JOLs",1,48,2023-04-13T23:54:58+00:00,18.966175079346,5,versionC_stim.csv,ReadVersion_Recog.csv,"Read Recog",Read3,BEACH,BOX,Study1,M,7,23,Study,User,-,,Study/JOL,"Study Phase",,18809,,,-1,-1,,,,1
ayannajones,qwg38gy4m2,"Mediated JOLs",1,49,2023-04-13T23:55:06+00:00,8.2364349365234,5,versionC_stim.csv,ReadVersion_Recog.csv,"Read Recog",Read3,HORSE,WHEEL,Study1,M,14,12,Study,User,-,,Study/JOL,"Study Phase",,7831,,,-1,-1,,,,1
ayannajones,qwg38gy4m2,"Mediated JOLs",1,50,2023-04-13T23:55:20+00:00,13.597284078598,5,versionC_stim.csv,ReadVersion_Recog.csv,"Read Recog",Read3,MEAT,KEYS,Study1,U,41,41,Study,User,-,,Study/JOL,"Study Phase",,13437,,,-1,-1,,,,1
ayannajones,qwg38gy4m2,"Mediated JOLs",1,51,2023-04-13T23:55:32+00:00,12.405638933182,5,versionC_stim.csv,ReadVersion_Recog.csv,"Read Recog",Read3,ROOT,PLANT,Study1,F,25,19,Study,User,-,,Study/JOL,"Study Phase",,12266,,,-1,-1,,,,1
ayannajones,qwg38gy4m2,"Mediated JOLs",1,52,2023-04-13T23:55:41+00:00,9.3346281051636,5,versionC_stim.csv,ReadVersion_Recog.csv,"Read Recog",Read3,LITTER,TRASH,Study1,F,21,48,Study,User,-,,Study/JOL,"Study Phase",,9206,,,-1,-1,,,,1
ayannajones,qwg38gy4m2,"Mediated JOLs",1,53,2023-04-13T23:55:48+00:00,6.779541015625,5,versionC_stim.csv,ReadVersion_Recog.csv,"Read Recog",Read3,MOON,SPACE,BUFFER2,Buffer,54,56,Study,User,-,,Study/JOL,BUFFER2,,6625,,,-1,-1,,,,1
ayannajones,qwg38gy4m2,"Mediated JOLs",1,54,2023-04-13T23:58:49+00:00,180.42330789566,5,versionC_stim.csv,ReadVersion_Recog.csv,"Read Recog",Read3,SHERRIF,POLICE,BUFFER2,Buffer,52,55,Study,User,-,,Study/JOL,BUFFER2,,180169,,,-1,-1,,,,0.972
ayannajones,qwg38gy4m2,"Mediated JOLs",1,55,2023-04-13T23:58:54+00:00,5.2112629413605,5,versionC_stim.csv,ReadVersion_Recog.csv,"Read Recog",Read3,THING,STUFF,BUFFER2,Buffer,55,53,Study,User,-,,Study/JOL,BUFFER2,,5020,,,-1,-1,,,,1
ayannajones,qwg38gy4m2,"Mediated JOLs",1,56,2023-04-13T23:59:05+00:00,11.375269174576,5,versionC_stim.csv,ReadVersion_Recog.csv,"Read Recog",Read3,GEESE,GOOSE,BUFFER2,Buffer,51,52,Study,User,-,,Study/JOL,BUFFER2,,11228,,,-1,-1,,,,1
ayannajones,qwg38gy4m2,"Mediated JOLs",1,57,2023-04-13T23:59:19+00:00,14.02460694313,5,versionC_stim.csv,ReadVersion_Recog.csv,"Read Recog",Read3,MALT,CHOCOLATE,BUFFER2,Buffer,53,54,Study,User,-,,Study/JOL,BUFFER2,,13859,,,-1,-1,,,,1
ayannajones,qwg38gy4m2,"Mediated JOLs",1,58,2023-04-13T23:59:21+00:00,1.7034840583801,5,versionC_stim.csv,ReadVersion_Recog.csv,"Read Recog",Read3,,,,,,0,Instruct,User,-,"You have completed this section. Please press Enter.",Filler_Instruction,Instruct2,,1573,,,-1,-1,,,,1
ayannajones,qwg38gy4m2,"Mediated JOLs",1,59,2023-04-14T00:01:21+00:00,120.18768000603,5,versionC_stim.csv,ReadVersion_Recog.csv,"Read Recog",Read3,,,,,,0,FreeRecall,120,120,"Please list the 50 US states in alphabetical order. The task will automatically advance to the next screen after two minutes.",,Filler1,,120015,"Alabama Alaska Arizona Arkansas California Colorado Connecticut Delaware Florida Georgia Hawaii Idaho Illinois Indiana Iowa Kansas Kentucky Louisiana Maine Maryland Massachusetts Michigan Minnesota Mississippi Missouri Montana Nebraska Nevada New Hampshire New Jersey New Mexico New York North Carolina North Dakota Ohio Oklahoma Oregon Pennsylvania Rhode Island South Carolina South Dakota Tennessee Texas Utah Vermont Virginia Washington West Virginia Wisconsin Wyoming ",0,-1,-1,0,0,,0.642
ayannajones,qwg38gy4m2,"Mediated JOLs",1,60,2023-04-14T00:01:33+00:00,11.508189916611,5,versionC_stim.csv,ReadVersion_Recog.csv,"Read Recog",Read3,,,,,,0,Instruct,User,10,"Your memory will now be tested. You will be presented with a series of words that may or may not have been previously presented alongside another word. If the word on the screen was previously studied, please select YES. If the word was not studied, select NO. PLEASE DO NOT SKIP ITEMS! Click next when you are ready to begin.",,Instruc7982154d,,11295,,,-1,-1,,,,1
ayannajones,qwg38gy4m2,"Mediated JOLs",1,61,2023-04-14T00:01:38+00:00,5.7713150978088,5,versionC_stim.csv,ReadVersion_Recog.csv,"Read Recog",Read3,,KEYS,RECOG,Presented,137,116,Likert,User,1,"Was this item previously studied?",PRESENTED,Recog,1::2,5614,YES,57.142857142857,-1,-1,0,0,,1
ayannajones,qwg38gy4m2,"Mediated JOLs",1,62,2023-04-14T00:02:17+00:00,38.232933998108,5,versionC_stim.csv,ReadVersion_Recog.csv,"Read Recog",Read3,,CAR,RECOG,CONTROL,88,79,Likert,User,1,"Was this item previously studied?",CONTROL,Recog,1::2,38064,NO,0,-1,-1,0,0,,1
ayannajones,qwg38gy4m2,"Mediated JOLs",1,63,2023-04-14T00:02:19+00:00,2.7679469585419,5,versionC_stim.csv,ReadVersion_Recog.csv,"Read Recog",Read3,,CARPET,RECOG,Presented,111,70,Likert,User,1,"Was this item previously studied?",CONTROL,Recog,1::2,2636,YES,22.222222222222,-1,-1,0,0,,1
ayannajones,qwg38gy4m2,"Mediated JOLs",1,64,2023-04-14T00:02:22+00:00,2.8646838665009,5,versionC_stim.csv,ReadVersion_Recog.csv,"Read Recog",Read3,,FIRE,RECOG,CONTROL,77,113,Likert,User,1,"Was this item previously studied?",PRESENTED,Recog,1::2,2730,NO,0,-1,-1,0,0,,1
ayannajones,qwg38gy4m2,"Mediated JOLs",1,65,2023-04-14T00:02:24+00:00,1.6278100013733,5,versionC_stim.csv,ReadVersion_Recog.csv,"Read Recog",Read3,,MAROON,RECOG,Presented,132,107,Likert,User,1,"Was this item previously studied?",PRESENTED,Recog,1::2,1485,YES,0,-1,-1,0,0,,1
ayannajones,qwg38gy4m2,"Mediated JOLs",1,66,2023-04-14T00:02:26+00:00,1.5581459999084,5,versionC_stim.csv,ReadVersion_Recog.csv,"Read Recog",Read3,,BANG,RECOG,Presented,146,89,Likert,User,1,"Was this item previously studied?",CONTROL,Recog,1::2,1413,YES,0,-1,-1,0,0,,1
ayannajones,qwg38gy4m2,"Mediated JOLs",1,67,2023-04-14T00:02:46+00:00,20.15144610405,5,versionC_stim.csv,ReadVersion_Recog.csv,"Read Recog",Read3,,PHONE,RECOG,Presented,138,120,Likert,User,1,"Was this item previously studied?",PRESENTED,Recog,1::2,19989,NO,28.571428571429,-1,-1,0,0,,1
ayannajones,qwg38gy4m2,"Mediated JOLs",1,68,2023-04-14T00:02:47+00:00,1.7953310012817,5,versionC_stim.csv,ReadVersion_Recog.csv,"Read Recog",Read3,,LEG,RECOG,CONTROL,101,123,Likert,User,1,"Was this item previously studied?",PRESENTED,Recog,1::2,1670,NO,0,-1,-1,0,0,,1
ayannajones,qwg38gy4m2,"Mediated JOLs",1,69,2023-04-14T00:02:49+00:00,1.8387460708618,5,versionC_stim.csv,ReadVersion_Recog.csv,"Read Recog",Read3,,WATER,RECOG,CONTROL,86,114,Likert,User,1,"Was this item previously studied?",PRESENTED,Recog,1::2,1713,NO,0,-1,-1,0,0,,1
ayannajones,qwg38gy4m2,"Mediated JOLs",1,70,2023-04-14T00:02:51+00:00,1.6443028450012,5,versionC_stim.csv,ReadVersion_Recog.csv,"Read Recog",Read3,,VASE,RECOG,CONTROL,87,124,Likert,User,1,"Was this item previously studied?",PRESENTED,Recog,1::2,1500,NO,0,-1,-1,0,0,,1
ayannajones,qwg38gy4m2,"Mediated JOLs",1,71,2023-04-14T00:03:04+00:00,13.297964096069,5,versionC_stim.csv,ReadVersion_Recog.csv,"Read Recog",Read3,,STOP,RECOG,CONTROL,58,63,Likert,User,1,"Was this item previously studied?",CONTROL,Recog,1::2,13140,NO,33.333333333333,-1,-1,0,0,,1
ayannajones,qwg38gy4m2,"Mediated JOLs",1,72,2023-04-14T00:03:07+00:00,3.0427129268646,5,versionC_stim.csv,ReadVersion_Recog.csv,"Read Recog",Read3,,SACK,RECOG,CONTROL,93,101,Likert,User,1,"Was this item previously studied?",CONTROL,Recog,1::2,2906,NO,0,-1,-1,0,0,,1
ayannajones,qwg38gy4m2,"Mediated JOLs",1,73,2023-04-14T00:03:09+00:00,1.7688391208649,5,versionC_stim.csv,ReadVersion_Recog.csv,"Read Recog",Read3,,BUSINESS,RECOG,CONTROL,95,64,Likert,User,1,"Was this item previously studied?",CONTROL,Recog,1::2,1637,NO,20,-1,-1,0,0,,1
ayannajones,qwg38gy4m2,"Mediated JOLs",1,74,2023-04-14T00:03:17+00:00,8.3443908691406,5,versionC_stim.csv,ReadVersion_Recog.csv,"Read Recog",Read3,,DONKEY,RECOG,Presented,120,135,Likert,User,1,"Was this item previously studied?",PRESENTED,Recog,1::2,8146,YES,22.222222222222,-1,-1,0,0,,1
ayannajones,qwg38gy4m2,"Mediated JOLs",1,75,2023-04-14T00:03:19+00:00,1.7424530982971,5,versionC_stim.csv,ReadVersion_Recog.csv,"Read Recog",Read3,,CAVE,RECOG,CONTROL,66,122,Likert,User,1,"Was this item previously studied?",PRESENTED,Recog,1::2,1618,NO,0,-1,-1,0,0,,1
ayannajones,qwg38gy4m2,"Mediated JOLs",1,76,2023-04-14T00:03:21+00:00,1.5770819187164,5,versionC_stim.csv,ReadVersion_Recog.csv,"Read Recog",Read3,,CLOTH,RECOG,Presented,133,94,Likert,User,1,"Was this item previously studied?",CONTROL,Recog,1::2,1458,YES,0,-1,-1,0,0,,1
ayannajones,qwg38gy4m2,"Mediated JOLs",1,77,2023-04-14T00:03:25+00:00,4.146488904953,5,versionC_stim.csv,ReadVersion_Recog.csv,"Read Recog",Read3,,HIDE,RECOG,CONTROL,96,69,Likert,User,1,"Was this item previously studied?",CONTROL,Recog,1::2,4001,NO,0,-1,-1,0,0,,1
ayannajones,qwg38gy4m2,"Mediated JOLs",1,78,2023-04-14T00:03:26+00:00,1.3139450550079,5,versionC_stim.csv,ReadVersion_Recog.csv,"Read Recog",Read3,,DARK,RECOG,Presented,114,85,Likert,User,1,"Was this item previously studied?",CONTROL,Recog,1::2,1198,YES,0,-1,-1,0,0,,1
ayannajones,qwg38gy4m2,"Mediated JOLs",1,79,2023-04-14T00:03:59+00:00,32.885014057159,5,versionC_stim.csv,ReadVersion_Recog.csv,"Read Recog",Read3,,PLANT,RECOG,CONTROL,72,97,Likert,User,1,"Was this item previously studied?",CONTROL,Recog,1::2,32721,YES,0,-1,-1,0,0,,1
ayannajones,qwg38gy4m2,"Mediated JOLs",1,80,2023-04-14T00:04:01+00:00,1.5075089931488,5,versionC_stim.csv,ReadVersion_Recog.csv,"Read Recog",Read3,,SLEEP,RECOG,Presented,125,87,Likert,User,1,"Was this item previously studied?",CONTROL,Recog,1::2,1313,YES,25,-1,-1,0,0,,1
ayannajones,qwg38gy4m2,"Mediated JOLs",1,81,2023-04-14T00:04:36+00:00,35.46530008316,5,versionC_stim.csv,ReadVersion_Recog.csv,"Read Recog",Read3,,PAPER,RECOG,CONTROL,78,140,Likert,User,1,"Was this item previously studied?",PRESENTED,Recog,1::2,35102,NO,0,-1,-1,0,0,,1
ayannajones,qwg38gy4m2,"Mediated JOLs",1,82,2023-04-14T00:04:38+00:00,1.7160279750824,5,versionC_stim.csv,ReadVersion_Recog.csv,"Read Recog",Read3,,KNOB,RECOG,CONTROL,70,78,Likert,User,1,"Was this item previously studied?",CONTROL,Recog,1::2,1561,NO,66.666666666667,-1,-1,0,0,,1
ayannajones,qwg38gy4m2,"Mediated JOLs",1,83,2023-04-14T00:04:39+00:00,1.5272738933563,5,versionC_stim.csv,ReadVersion_Recog.csv,"Read Recog",Read3,,ACCIDENT,RECOG,CONTROL,90,103,Likert,User,1,"Was this item previously studied?",PRESENTED,Recog,1::2,1401,NO,20,-1,-1,0,0,,1
ayannajones,qwg38gy4m2,"Mediated JOLs",1,84,2023-04-14T00:04:41+00:00,1.2696781158447,5,versionC_stim.csv,ReadVersion_Recog.csv,"Read Recog",Read3,,SYRUP,RECOG,Presented,107,138,Likert,User,1,"Was this item previously studied?",PRESENTED,Recog,1::2,1151,YES,25,-1,-1,0,0,,1
ayannajones,qwg38gy4m2,"Mediated JOLs",1,85,2023-04-14T00:04:42+00:00,1.186460018158,5,versionC_stim.csv,ReadVersion_Recog.csv,"Read Recog",Read3,,FLOWER,RECOG,Presented,130,96,Likert,User,1,"Was this item previously studied?",CONTROL,Recog,1::2,1052,YES,22.222222222222,-1,-1,0,0,,1
ayannajones,qwg38gy4m2,"Mediated JOLs",1,86,2023-04-14T00:04:43+00:00,1.5844449996948,5,versionC_stim.csv,ReadVersion_Recog.csv,"Read Recog",Read3,,LAWYER,RECOG,CONTROL,62,99,Likert,User,1,"Was this item previously studied?",CONTROL,Recog,1::2,1467,NO,0,-1,-1,0,0,,1
ayannajones,qwg38gy4m2,"Mediated JOLs",1,87,2023-04-14T00:04:50+00:00,6.6006879806519,5,versionC_stim.csv,ReadVersion_Recog.csv,"Read Recog",Read3,,BRONZE,RECOG,CONTROL,99,92,Likert,User,1,"Was this item previously studied?",CONTROL,Recog,1::2,6450,NO,25,-1,-1,0,0,,1
ayannajones,qwg38gy4m2,"Mediated JOLs",1,88,2023-04-14T00:04:53+00:00,2.9781169891357,5,versionC_stim.csv,ReadVersion_Recog.csv,"Read Recog",Read3,,PEAK,RECOG,CONTROL,69,77,Likert,User,1,"Was this item previously studied?",CONTROL,Recog,1::2,2839,NO,0,-1,-1,0,0,,1
ayannajones,qwg38gy4m2,"Mediated JOLs",1,89,2023-04-14T00:05:15+00:00,22.542494058609,5,versionC_stim.csv,ReadVersion_Recog.csv,"Read Recog",Read3,,BASEBALL,RECOG,CONTROL,80,136,Likert,User,1,"Was this item previously studied?",PRESENTED,Recog,1::2,22387,NO,0,-1,-1,0,0,,1
ayannajones,qwg38gy4m2,"Mediated JOLs",1,90,2023-04-14T00:05:30+00:00,14.060795783997,5,versionC_stim.csv,ReadVersion_Recog.csv,"Read Recog",Read3,,DRINK,RECOG,Presented,128,80,Likert,User,1,"Was this item previously studied?",CONTROL,Recog,1::2,13899,NO,28.571428571429,-1,-1,0,0,,1
ayannajones,qwg38gy4m2,"Mediated JOLs",1,91,2023-04-14T00:05:31+00:00,1.890732049942,5,versionC_stim.csv,ReadVersion_Recog.csv,"Read Recog",Read3,,HAMMER,RECOG,CONTROL,74,131,Likert,User,1,"Was this item previously studied?",PRESENTED,Recog,1::2,1749,NO,0,-1,-1,0,0,,1
ayannajones,qwg38gy4m2,"Mediated JOLs",1,92,2023-04-14T00:05:33+00:00,1.2485930919647,5,versionC_stim.csv,ReadVersion_Recog.csv,"Read Recog",Read3,,ROD,RECOG,Presented,141,90,Likert,User,1,"Was this item previously studied?",CONTROL,Recog,1::2,1126,YES,0,-1,-1,0,0,,1
ayannajones,qwg38gy4m2,"Mediated JOLs",1,93,2023-04-14T00:05:51+00:00,18.588433027267,5,versionC_stim.csv,ReadVersion_Recog.csv,"Read Recog",Read3,,BOUNCE,RECOG,Presented,108,115,Likert,User,1,"Was this item previously studied?",PRESENTED,Recog,1::2,18431,YES,22.222222222222,-1,-1,0,0,,1
ayannajones,qwg38gy4m2,"Mediated JOLs",1,94,2023-04-14T00:06:10+00:00,18.509176015854,5,versionC_stim.csv,ReadVersion_Recog.csv,"Read Recog",Read3,,SEED,RECOG,CONTROL,65,66,Likert,User,1,"Was this item previously studied?",CONTROL,Recog,1::2,18335,NO,0,-1,-1,0,0,,1
ayannajones,qwg38gy4m2,"Mediated JOLs",1,95,2023-04-14T00:06:33+00:00,23.466455936432,5,versionC_stim.csv,ReadVersion_Recog.csv,"Read Recog",Read3,,BIRD,RECOG,Presented,122,68,Likert,User,1,"Was this item previously studied?",CONTROL,Recog,1::2,23312,NO,0,-1,-1,0,0,,1
ayannajones,qwg38gy4m2,"Mediated JOLs",1,96,2023-04-14T00:06:44+00:00,10.633670091629,5,versionC_stim.csv,ReadVersion_Recog.csv,"Read Recog",Read3,,LOVE,RECOG,Presented,127,83,Likert,User,1,"Was this item previously studied?",CONTROL,Recog,1::2,10482,YES,28.571428571429,-1,-1,0,0,,1
ayannajones,qwg38gy4m2,"Mediated JOLs",1,97,2023-04-14T00:06:45+00:00,1.5974848270416,5,versionC_stim.csv,ReadVersion_Recog.csv,"Read Recog",Read3,,SMELL,RECOG,CONTROL,79,81,Likert,User,1,"Was this item previously studied?",CONTROL,Recog,1::2,1467,NO,0,-1,-1,0,0,,1
ayannajones,qwg38gy4m2,"Mediated JOLs",1,98,2023-04-14T00:06:50+00:00,4.5051319599152,5,versionC_stim.csv,ReadVersion_Recog.csv,"Read Recog",Read3,,CARD,RECOG,Presented,129,145,Likert,User,1,"Was this item previously studied?",PRESENTED,Recog,1::2,4352,YES,0,-1,-1,0,0,,1
ayannajones,qwg38gy4m2,"Mediated JOLs",1,99,2023-04-14T00:06:52+00:00,1.8530180454254,5,versionC_stim.csv,ReadVersion_Recog.csv,"Read Recog",Read3,,MUSCLE,RECOG,CONTROL,71,121,Likert,User,1,"Was this item previously studied?",PRESENTED,Recog,1::2,1728,NO,0,-1,-1,0,0,,1
ayannajones,qwg38gy4m2,"Mediated JOLs",1,100,2023-04-14T00:06:57+00:00,4.9688379764557,5,versionC_stim.csv,ReadVersion_Recog.csv,"Read Recog",Read3,,ELECTION,RECOG,Presented,135,58,Likert,User,1,"Was this item previously studied?",CONTROL,Recog,1::2,4814,YES,18.181818181818,-1,-1,0,0,,1
ayannajones,qwg38gy4m2,"Mediated JOLs",1,101,2023-04-14T00:06:59+00:00,1.851802110672,5,versionC_stim.csv,ReadVersion_Recog.csv,"Read Recog",Read3,,PIE,RECOG,Presented,105,71,Likert,User,1,"Was this item previously studied?",CONTROL,Recog,1::2,1716,YES,33.333333333333,-1,-1,0,0,,1
ayannajones,qwg38gy4m2,"Mediated JOLs",1,102,2023-04-14T00:07:12+00:00,13.768637895584,5,versionC_stim.csv,ReadVersion_Recog.csv,"Read Recog",Read3,,CUT,RECOG,CONTROL,73,74,Likert,User,1,"Was this item previously studied?",CONTROL,Recog,1::2,13606,NO,0,-1,-1,0,0,,1
ayannajones,qwg38gy4m2,"Mediated JOLs",1,103,2023-04-14T00:07:15+00:00,2.9828970432281,5,versionC_stim.csv,ReadVersion_Recog.csv,"Read Recog",Read3,,BASKET,RECOG,CONTROL,67,125,Likert,User,1,"Was this item previously studied?",PRESENTED,Recog,1::2,2851,NO,0,-1,-1,0,0,,1
ayannajones,qwg38gy4m2,"Mediated JOLs",1,104,2023-04-14T00:07:21+00:00,5.7661430835724,5,versionC_stim.csv,ReadVersion_Recog.csv,"Read Recog",Read3,,BOTTLE,RECOG,Presented,112,108,Likert,User,1,"Was this item previously studied?",PRESENTED,Recog,1::2,5610,YES,22.222222222222,-1,-1,0,0,,1
ayannajones,qwg38gy4m2,"Mediated JOLs",1,105,2023-04-14T00:07:23+00:00,2.0360498428345,5,versionC_stim.csv,ReadVersion_Recog.csv,"Read Recog",Read3,,CHILDREN,RECOG,CONTROL,100,86,Likert,User,1,"Was this item previously studied?",CONTROL,Recog,1::2,1906,NO,20,-1,-1,0,0,,1
ayannajones,qwg38gy4m2,"Mediated JOLs",1,106,2023-04-14T00:07:25+00:00,1.3853871822357,5,versionC_stim.csv,ReadVersion_Recog.csv,"Read Recog",Read3,,RED,RECOG,CONTROL,76,126,Likert,User,1,"Was this item previously studied?",PRESENTED,Recog,1::2,1256,NO,0,-1,-1,0,0,,1
ayannajones,qwg38gy4m2,"Mediated JOLs",1,107,2023-04-14T00:07:29+00:00,4.2550749778748,5,versionC_stim.csv,ReadVersion_Recog.csv,"Read Recog",Read3,,MONEY,RECOG,Presented,118,141,Likert,User,1,"Was this item previously studied?",PRESENTED,Recog,1::2,4101,NO,28.571428571429,-1,-1,0,0,,1
ayannajones,qwg38gy4m2,"Mediated JOLs",1,108,2023-04-14T00:07:30+00:00,1.370808839798,5,versionC_stim.csv,ReadVersion_Recog.csv,"Read Recog",Read3,,WOLF,RECOG,CONTROL,89,102,Likert,User,1,"Was this item previously studied?",PRESENTED,Recog,1::2,1228,NO,33.333333333333,-1,-1,0,0,,1
ayannajones,qwg38gy4m2,"Mediated JOLs",1,109,2023-04-14T00:07:32+00:00,1.7467250823975,5,versionC_stim.csv,ReadVersion_Recog.csv,"Read Recog",Read3,,CHARM,RECOG,Presented,136,65,Likert,User,1,"Was this item previously studied?",CONTROL,Recog,1::2,1613,YES,0,-1,-1,0,0,,1
ayannajones,qwg38gy4m2,"Mediated JOLs",1,110,2023-04-14T00:08:40+00:00,67.888423919678,5,versionC_stim.csv,ReadVersion_Recog.csv,"Read Recog",Read3,,DANCE,RECOG,Presented,109,133,Likert,User,1,"Was this item previously studied?",PRESENTED,Recog,1::2,10755,YES,25,-1,-1,0,0,,1
ayannajones,qwg38gy4m2,"Mediated JOLs",1,111,2023-04-14T00:08:59+00:00,19.150843143463,5,versionC_stim.csv,ReadVersion_Recog.csv,"Read Recog",Read3,,FISH,RECOG,Presented,131,139,Likert,User,1,"Was this item previously studied?",PRESENTED,Recog,1::2,18993,YES,28.571428571429,-1,-1,0,0,,1
ayannajones,qwg38gy4m2,"Mediated JOLs",1,112,2023-04-14T00:09:01+00:00,1.9244379997253,5,versionC_stim.csv,ReadVersion_Recog.csv,"Read Recog",Read3,,TOIL,RECOG,CONTROL,97,106,Likert,User,1,"Was this item previously studied?",PRESENTED,Recog,1::2,1490,NO,33.333333333333,-1,-1,0,0,,1
ayannajones,qwg38gy4m2,"Mediated JOLs",1,113,2023-04-14T00:09:03+00:00,2.1550300121307,5,versionC_stim.csv,ReadVersion_Recog.csv,"Read Recog",Read3,,OUNCE,RECOG,CONTROL,98,84,Likert,User,1,"Was this item previously studied?",CONTROL,Recog,1::2,1976,NO,28.571428571429,-1,-1,0,0,,1
ayannajones,qwg38gy4m2,"Mediated JOLs",1,114,2023-04-14T00:09:06+00:00,2.9534850120544,5,versionC_stim.csv,ReadVersion_Recog.csv,"Read Recog",Read3,,MORNING,RECOG,Presented,144,72,Likert,User,1,"Was this item previously studied?",CONTROL,Recog,1::2,2626,YES,0,-1,-1,0,0,,1
ayannajones,qwg38gy4m2,"Mediated JOLs",1,115,2023-04-14T00:09:08+00:00,1.695209980011,5,versionC_stim.csv,ReadVersion_Recog.csv,"Read Recog",Read3,,DRINK,RECOG,CONTROL,63,88,Likert,User,1,"Was this item previously studied?",CONTROL,Recog,1::2,1537,YES,0,-1,-1,0,0,,1
ayannajones,qwg38gy4m2,"Mediated JOLs",1,116,2023-04-14T00:09:09+00:00,1.5717170238495,5,versionC_stim.csv,ReadVersion_Recog.csv,"Read Recog",Read3,,PLANT,RECOG,Presented,121,129,Likert,User,1,"Was this item previously studied?",PRESENTED,Recog,1::2,1446,YES,0,-1,-1,0,0,,1
ayannajones,qwg38gy4m2,"Mediated JOLs",1,117,2023-04-14T00:09:19+00:00,10.193655014038,5,versionC_stim.csv,ReadVersion_Recog.csv,"Read Recog",Read3,,WHEEL,RECOG,Presented,110,91,Likert,User,1,"Was this item previously studied?",CONTROL,Recog,1::2,10030,YES,25,-1,-1,0,0,,1
ayannajones,qwg38gy4m2,"Mediated JOLs",1,118,2023-04-14T00:09:22+00:00,2.214460849762,5,versionC_stim.csv,ReadVersion_Recog.csv,"Read Recog",Read3,,STRIPES,RECOG,Presented,102,59,Likert,User,1,"Was this item previously studied?",CONTROL,Recog,1::2,2072,NO,0,-1,-1,0,0,,1
ayannajones,qwg38gy4m2,"Mediated JOLs",1,119,2023-04-14T00:09:27+00:00,5.5773420333862,5,versionC_stim.csv,ReadVersion_Recog.csv,"Read Recog",Read3,,FIGHT,RECOG,CONTROL,82,75,Likert,User,1,"Was this item previously studied?",CONTROL,Recog,1::2,5413,NO,0,-1,-1,0,0,,1
ayannajones,qwg38gy4m2,"Mediated JOLs",1,120,2023-04-14T00:09:30+00:00,3.1064441204071,5,versionC_stim.csv,ReadVersion_Recog.csv,"Read Recog",Read3,,QUIET,RECOG,Presented,104,57,Likert,User,1,"Was this item previously studied?",CONTROL,Recog,1::2,2973,YES,25,-1,-1,0,0,,1
ayannajones,qwg38gy4m2,"Mediated JOLs",1,121,2023-04-14T00:09:47+00:00,16.718336820602,5,versionC_stim.csv,ReadVersion_Recog.csv,"Read Recog",Read3,,BOX,RECOG,Presented,103,127,Likert,User,1,"Was this item previously studied?",PRESENTED,Recog,1::2,16530,YES,0,-1,-1,0,0,,1
ayannajones,qwg38gy4m2,"Mediated JOLs",1,122,2023-04-14T00:10:04+00:00,17.270182132721,5,versionC_stim.csv,ReadVersion_Recog.csv,"Read Recog",Read3,,FEATHER,RECOG,CONTROL,64,111,Likert,User,1,"Was this item previously studied?",PRESENTED,Recog,1::2,16793,NO,0,-1,-1,0,0,,1
ayannajones,qwg38gy4m2,"Mediated JOLs",1,123,2023-04-14T00:10:18+00:00,13.526695013046,5,versionC_stim.csv,ReadVersion_Recog.csv,"Read Recog",Read3,,TRASH,RECOG,Presented,117,110,Likert,User,1,"Was this item previously studied?",PRESENTED,Recog,1::2,13357,NO,0,-1,-1,0,0,,1
ayannajones,qwg38gy4m2,"Mediated JOLs",1,124,2023-04-14T00:10:19+00:00,1.6198048591614,5,versionC_stim.csv,ReadVersion_Recog.csv,"Read Recog",Read3,,RIDDLE,RECOG,CONTROL,91,105,Likert,User,1,"Was this item previously studied?",PRESENTED,Recog,1::2,1487,NO,0,-1,-1,0,0,,1
ayannajones,qwg38gy4m2,"Mediated JOLs",1,125,2023-04-14T00:10:34+00:00,14.22869515419,5,versionC_stim.csv,ReadVersion_Recog.csv,"Read Recog",Read3,,HEAD,RECOG,Presented,119,144,Likert,User,1,"Was this item previously studied?",PRESENTED,Recog,1::2,14060,YES,28.571428571429,-1,-1,0,0,,1
ayannajones,qwg38gy4m2,"Mediated JOLs",1,126,2023-04-14T00:10:46+00:00,11.823974847794,5,versionC_stim.csv,ReadVersion_Recog.csv,"Read Recog",Read3,,SNOW,RECOG,CONTROL,57,130,Likert,User,1,"Was this item previously studied?",PRESENTED,Recog,1::2,11654,NO,66.666666666667,-1,-1,0,0,,1
ayannajones,qwg38gy4m2,"Mediated JOLs",1,127,2023-04-14T00:10:48+00:00,2.7918071746826,5,versionC_stim.csv,ReadVersion_Recog.csv,"Read Recog",Read3,,THIGH,RECOG,CONTROL,68,82,Likert,User,1,"Was this item previously studied?",CONTROL,Recog,1::2,2669,NO,0,-1,-1,0,0,,1
ayannajones,qwg38gy4m2,"Mediated JOLs",1,128,2023-04-14T00:11:05+00:00,16.395442962646,5,versionC_stim.csv,ReadVersion_Recog.csv,"Read Recog",Read3,,COTTON,RECOG,Presented,116,118,Likert,User,1,"Was this item previously studied?",PRESENTED,Recog,1::2,16190,NO,25,-1,-1,0,0,,1
ayannajones,qwg38gy4m2,"Mediated JOLs",1,129,2023-04-14T00:11:08+00:00,3.4266319274902,5,versionC_stim.csv,ReadVersion_Recog.csv,"Read Recog",Read3,,COLD,RECOG,CONTROL,83,76,Likert,User,1,"Was this item previously studied?",CONTROL,Recog,1::2,3306,NO,33.333333333333,-1,-1,0,0,,1
ayannajones,qwg38gy4m2,"Mediated JOLs",1,130,2023-04-14T00:11:17+00:00,8.7880029678345,5,versionC_stim.csv,ReadVersion_Recog.csv,"Read Recog",Read3,,STEAK,RECOG,Presented,134,146,Likert,User,1,"Was this item previously studied?",PRESENTED,Recog,1::2,8626,YES,25,-1,-1,0,0,,1
ayannajones,qwg38gy4m2,"Mediated JOLs",1,131,2023-04-14T00:11:20+00:00,2.6359510421753,5,versionC_stim.csv,ReadVersion_Recog.csv,"Read Recog",Read3,,SILK,RECOG,Presented,106,137,Likert,User,1,"Was this item previously studied?",PRESENTED,Recog,1::2,2502,YES,28.571428571429,-1,-1,0,0,,1
ayannajones,qwg38gy4m2,"Mediated JOLs",1,132,2023-04-14T00:11:33+00:00,13.505867004395,5,versionC_stim.csv,ReadVersion_Recog.csv,"Read Recog",Read3,,COW,RECOG,CONTROL,84,117,Likert,User,1,"Was this item previously studied?",PRESENTED,Recog,1::2,13279,NO,40,-1,-1,0,0,,1
ayannajones,qwg38gy4m2,"Mediated JOLs",1,133,2023-04-14T00:11:35+00:00,1.8918590545654,5,versionC_stim.csv,ReadVersion_Recog.csv,"Read Recog",Read3,,HORN,RECOG,CONTROL,94,104,Likert,User,1,"Was this item previously studied?",PRESENTED,Recog,1::2,1709,NO,33.333333333333,-1,-1,0,0,,1
ayannajones,qwg38gy4m2,"Mediated JOLs",1,134,2023-04-14T00:11:36+00:00,1.4563059806824,5,versionC_stim.csv,ReadVersion_Recog.csv,"Read Recog",Read3,,SMELL,RECOG,CONTROL,61,60,Likert,User,1,"Was this item previously studied?",CONTROL,Recog,1::2,1333,NO,0,-1,-1,0,0,,1
ayannajones,qwg38gy4m2,"Mediated JOLs",1,135,2023-04-14T00:11:38+00:00,1.7367188930511,5,versionC_stim.csv,ReadVersion_Recog.csv,"Read Recog",Read3,,DONKEY,RECOG,Presented,126,142,Likert,User,1,"Was this item previously studied?",PRESENTED,Recog,1::2,1604,YES,22.222222222222,-1,-1,0,0,,1
ayannajones,qwg38gy4m2,"Mediated JOLs",1,136,2023-04-14T00:11:56+00:00,17.636160135269,5,versionC_stim.csv,ReadVersion_Recog.csv,"Read Recog",Read3,,CLEAN,RECOG,Presented,124,73,Likert,User,1,"Was this item previously studied?",CONTROL,Recog,1::2,17483,NO,28.571428571429,-1,-1,0,0,,1
ayannajones,qwg38gy4m2,"Mediated JOLs",1,137,2023-04-14T00:11:58+00:00,1.9601850509644,5,versionC_stim.csv,ReadVersion_Recog.csv,"Read Recog",Read3,,BELT,RECOG,Presented,142,119,Likert,User,1,"Was this item previously studied?",PRESENTED,Recog,1::2,1813,YES,28.571428571429,-1,-1,0,0,,1
ayannajones,qwg38gy4m2,"Mediated JOLs",1,138,2023-04-14T00:11:59+00:00,1.6622829437256,5,versionC_stim.csv,ReadVersion_Recog.csv,"Read Recog",Read3,,CLUTTER,RECOG,CONTROL,92,62,Likert,User,1,"Was this item previously studied?",CONTROL,Recog,1::2,1529,NO,0,-1,-1,0,0,,1
ayannajones,qwg38gy4m2,"Mediated JOLs",1,139,2023-04-14T00:12:01+00:00,1.3563718795776,5,versionC_stim.csv,ReadVersion_Recog.csv,"Read Recog",Read3,,ISLAND,RECOG,CONTROL,60,128,Likert,User,1,"Was this item previously studied?",PRESENTED,Recog,1::2,1230,NO,25,-1,-1,0,0,,1
ayannajones,qwg38gy4m2,"Mediated JOLs",1,140,2023-04-14T00:12:04+00:00,3.2927980422974,5,versionC_stim.csv,ReadVersion_Recog.csv,"Read Recog",Read3,,FINGER,RECOG,Presented,113,143,Likert,User,1,"Was this item previously studied?",PRESENTED,Recog,1::2,3166,YES,22.222222222222,-1,-1,0,0,,1
ayannajones,qwg38gy4m2,"Mediated JOLs",1,141,2023-04-14T00:12:19+00:00,14.567142963409,5,versionC_stim.csv,ReadVersion_Recog.csv,"Read Recog",Read3,,HAND,RECOG,Presented,145,112,Likert,User,1,"Was this item previously studied?",PRESENTED,Recog,1::2,14389,NO,33.333333333333,-1,-1,0,0,,1
ayannajones,qwg38gy4m2,"Mediated JOLs",1,142,2023-04-14T00:12:28+00:00,9.8278820514679,5,versionC_stim.csv,ReadVersion_Recog.csv,"Read Recog",Read3,,CLOTHES,RECOG,CONTROL,75,109,Likert,User,1,"Was this item previously studied?",PRESENTED,Recog,1::2,9671,NO,22.222222222222,-1,-1,0,0,,1
ayannajones,qwg38gy4m2,"Mediated JOLs",1,143,2023-04-14T00:12:42+00:00,13.298017024994,5,versionC_stim.csv,ReadVersion_Recog.csv,"Read Recog",Read3,,SENTENCE,RECOG,Presented,123,134,Likert,User,1,"Was this item previously studied?",PRESENTED,Recog,1::2,13136,YES,18.181818181818,-1,-1,0,0,,1
ayannajones,qwg38gy4m2,"Mediated JOLs",1,144,2023-04-14T00:12:44+00:00,1.9090929031372,5,versionC_stim.csv,ReadVersion_Recog.csv,"Read Recog",Read3,,STING,RECOG,CONTROL,81,95,Likert,User,1,"Was this item previously studied?",CONTROL,Recog,1::2,1777,NO,28.571428571429,-1,-1,0,0,,1
ayannajones,qwg38gy4m2,"Mediated JOLs",1,145,2023-04-14T00:12:45+00:00,1.4065690040588,5,versionC_stim.csv,ReadVersion_Recog.csv,"Read Recog",Read3,,COLLAR,RECOG,CONTROL,59,67,Likert,User,1,"Was this item previously studied?",CONTROL,Recog,1::2,1280,NO,25,-1,-1,0,0,,1
ayannajones,qwg38gy4m2,"Mediated JOLs",1,146,2023-04-14T00:12:55+00:00,9.7980670928955,5,versionC_stim.csv,ReadVersion_Recog.csv,"Read Recog",Read3,,TICK,RECOG,Presented,143,61,Likert,User,1,"Was this item previously studied?",CONTROL,Recog,1::2,9655,NO,0,-1,-1,0,0,,1
ayannajones,qwg38gy4m2,"Mediated JOLs",1,147,2023-04-14T00:13:10+00:00,14.647871017456,5,versionC_stim.csv,ReadVersion_Recog.csv,"Read Recog",Read3,,SHAKE,RECOG,Presented,139,100,Likert,User,1,"Was this item previously studied?",CONTROL,Recog,1::2,14409,NO,0,-1,-1,0,0,,1
ayannajones,qwg38gy4m2,"Mediated JOLs",1,148,2023-04-14T00:13:11+00:00,1.8082420825958,5,versionC_stim.csv,ReadVersion_Recog.csv,"Read Recog",Read3,,FICTION,RECOG,Presented,140,93,Likert,User,1,"Was this item previously studied?",CONTROL,Recog,1::2,1684,NO,22.222222222222,-1,-1,0,0,,1
ayannajones,qwg38gy4m2,"Mediated JOLs",1,149,2023-04-14T00:13:13+00:00,1.614718914032,5,versionC_stim.csv,ReadVersion_Recog.csv,"Read Recog",Read3,,BUG,RECOG,CONTROL,85,132,Likert,User,1,"Was this item previously studied?",PRESENTED,Recog,1::2,1482,NO,0,-1,-1,0,0,,1
ayannajones,qwg38gy4m2,"Mediated JOLs",1,150,2023-04-14T00:13:15+00:00,1.6622080802917,5,versionC_stim.csv,ReadVersion_Recog.csv,"Read Recog",Read3,,HAIR,RECOG,Presented,115,98,Likert,User,1,"Was this item previously studied?",CONTROL,Recog,1::2,1535,YES,0,-1,-1,0,0,,1
ayannajones,qwg38gy4m2,"Mediated JOLs",1,151,2023-04-14T00:13:16+00:00,1.4060108661652,5,versionC_stim.csv,ReadVersion_Recog.csv,"Read Recog",Read3,,,,,,0,Instruct,User,-,"You have completed this section. Please press Enter.",,Instruct7,,1254,,,-1,-1,,,,1
ayannajones,qwg38gy4m2,"Mediated JOLs",1,152,2023-04-14T00:13:19+00:00,2.4871969223022,5,versionC_stim.csv,ReadVersion_Recog.csv,"Read Recog",Read3,,,,,,0,Instruct,User,-,"The following screen will ask you a few questions abour your experience today. You must complete these questions to receive credit.",,Instruct8,,2353,,,-1,-1,,,,1
