Username,ID,ExperimentName,Session,Trial,Date,TimeDif,"Condition Number","Stimuli File","Order File","Condition Description","Condition Notes",Stimuli*Cue,Stimuli*Answer,Stimuli*Shuffle,"Stimuli*Stimuli Notes",Stimuli*Value,Procedure*Item,"Procedure*Trial Type","Procedure*Max Time","Procedure*Min Time",Procedure*Text,"Procedure*Procedure Notes",Procedure*Shuffle,Procedure*,Response*RT,Response*Response,Response*Accuracy,Response*RTfirst,Response*RTlast,Response*strictAcc,Response*lenientAcc,Response*focus,Response*Focus
644125940320fea474c2afd3,j805j873k6,"Mediated Recog Prolific",1,1,2023-05-08T20:26:11+00:00,8.7831878662109,5,versionC_stim.csv,ReadVersion_Recog.csv,"Read Recog",Read3,,,,,,0,Instruct,-,5,"In this section, you will be presented with a series of word pairs. Please study each word pair! Your memory will be tested!",Initial_Instruct,Instruct1,,8285,,,-1,-1,,,,1
644125940320fea474c2afd3,j805j873k6,"Mediated Recog Prolific",1,2,2023-05-08T20:26:13+00:00,2.0817949771881,5,versionC_stim.csv,ReadVersion_Recog.csv,"Read Recog",Read3,,,,,,0,Instruct,User,-,"You will now begin. Press Enter when you are ready to begin.",,Instruct16,,1161,,,-1,-1,,,,1
644125940320fea474c2afd3,j805j873k6,"Mediated Recog Prolific",1,3,2023-05-08T20:26:16+00:00,2.7871100902557,5,versionC_stim.csv,ReadVersion_Recog.csv,"Read Recog",Read3,PITCHER,CATCHER,BUFFER1,Buffer,2,6,Study,User,-,,Study/JOL,BUFFER,,1473,,,-1,-1,,,,1
644125940320fea474c2afd3,j805j873k6,"Mediated Recog Prolific",1,4,2023-05-08T20:26:18+00:00,2.0715570449829,5,versionC_stim.csv,ReadVersion_Recog.csv,"Read Recog",Read3,TREES,GREEN,BUFFER1,Buffer,1,5,Study,User,-,,Study/JOL,BUFFER,,1099,,,-1,-1,,,,1
644125940320fea474c2afd3,j805j873k6,"Mediated Recog Prolific",1,5,2023-05-08T20:26:20+00:00,2.3229289054871,5,versionC_stim.csv,ReadVersion_Recog.csv,"Read Recog",Read3,SPACE,JAM,BUFFER1,Buffer,5,4,Study,User,-,,Study/JOL,BUFFER,,1616,,,-1,-1,,,,1
644125940320fea474c2afd3,j805j873k6,"Mediated Recog Prolific",1,6,2023-05-08T20:26:22+00:00,1.6505291461945,5,versionC_stim.csv,ReadVersion_Recog.csv,"Read Recog",Read3,SCARE,FRIGHT,BUFFER1,Buffer,4,2,Study,User,-,,Study/JOL,BUFFER,,655,,,-1,-1,,,,1
644125940320fea474c2afd3,j805j873k6,"Mediated Recog Prolific",1,7,2023-05-08T20:26:23+00:00,1.4357399940491,5,versionC_stim.csv,ReadVersion_Recog.csv,"Read Recog",Read3,PEANUT,BUTTER,BUFFER1,Buffer,3,3,Study,User,-,,Study/JOL,BUFFER,,632,,,-1,-1,,,,1
644125940320fea474c2afd3,j805j873k6,"Mediated Recog Prolific",1,8,2023-05-08T20:26:25+00:00,1.5029988288879,5,versionC_stim.csv,ReadVersion_Recog.csv,"Read Recog",Read3,TOOTH,HAIR,Study1,M,19,39,Study,User,-,,Study/JOL,"Study Phase",,586,,,-1,-1,,,,1
644125940320fea474c2afd3,j805j873k6,"Mediated Recog Prolific",1,9,2023-05-08T20:26:26+00:00,1.2120850086212,5,versionC_stim.csv,ReadVersion_Recog.csv,"Read Recog",Read3,GIVE,STEAK,Study1,U,38,13,Study,User,-,,Study/JOL,"Study Phase",,405,,,-1,-1,,,,1
644125940320fea474c2afd3,j805j873k6,"Mediated Recog Prolific",1,10,2023-05-08T20:26:28+00:00,1.4315941333771,5,versionC_stim.csv,ReadVersion_Recog.csv,"Read Recog",Read3,NAP,SLEEP,Study1,F,29,15,Study,User,-,,Study/JOL,"Study Phase",,454,,,-1,-1,,,,1
644125940320fea474c2afd3,j805j873k6,"Mediated Recog Prolific",1,11,2023-05-08T20:26:29+00:00,1.6522660255432,5,versionC_stim.csv,ReadVersion_Recog.csv,"Read Recog",Read3,SCALP,HEAD,Study1,F,23,40,Study,User,-,,Study/JOL,"Study Phase",,459,,,-1,-1,,,,1
644125940320fea474c2afd3,j805j873k6,"Mediated Recog Prolific",1,12,2023-05-08T20:26:31+00:00,1.5392158031464,5,versionC_stim.csv,ReadVersion_Recog.csv,"Read Recog",Read3,ROOT,PLANT,Study1,F,25,7,Study,User,-,,Study/JOL,"Study Phase",,742,,,-1,-1,,,,1
644125940320fea474c2afd3,j805j873k6,"Mediated Recog Prolific",1,13,2023-05-08T20:26:32+00:00,1.3657281398773,5,versionC_stim.csv,ReadVersion_Recog.csv,"Read Recog",Read3,TUNA,FISH,Study1,F,35,37,Study,User,-,,Study/JOL,"Study Phase",,585,,,-1,-1,,,,1
644125940320fea474c2afd3,j805j873k6,"Mediated Recog Prolific",1,14,2023-05-08T20:26:33+00:00,1.3792860507965,5,versionC_stim.csv,ReadVersion_Recog.csv,"Read Recog",Read3,WAGE,MONEY,Study1,F,22,29,Study,User,-,,Study/JOL,"Study Phase",,449,,,-1,-1,,,,1
644125940320fea474c2afd3,j805j873k6,"Mediated Recog Prolific",1,15,2023-05-08T20:26:35+00:00,1.6731069087982,5,versionC_stim.csv,ReadVersion_Recog.csv,"Read Recog",Read3,STRETCH,CLOTH,Study1,U,37,25,Study,User,-,,Study/JOL,"Study Phase",,538,,,-1,-1,,,,1
644125940320fea474c2afd3,j805j873k6,"Mediated Recog Prolific",1,16,2023-05-08T20:26:37+00:00,1.8525938987732,5,versionC_stim.csv,ReadVersion_Recog.csv,"Read Recog",Read3,VEHICLE,CHARM,Study1,U,40,19,Study,User,-,,Study/JOL,"Study Phase",,421,,,-1,-1,,,,1
644125940320fea474c2afd3,j805j873k6,"Mediated Recog Prolific",1,17,2023-05-08T20:26:39+00:00,1.5314722061157,5,versionC_stim.csv,ReadVersion_Recog.csv,"Read Recog",Read3,CREDIT,CARD,Study1,F,33,10,Study,User,-,,Study/JOL,"Study Phase",,490,,,-1,-1,,,,1
644125940320fea474c2afd3,j805j873k6,"Mediated Recog Prolific",1,18,2023-05-08T20:26:40+00:00,1.3933339118958,5,versionC_stim.csv,ReadVersion_Recog.csv,"Read Recog",Read3,MULE,DONKEY,Study1,F,24,46,Study,User,-,,Study/JOL,"Study Phase",,306,,,-1,-1,,,,1
644125940320fea474c2afd3,j805j873k6,"Mediated Recog Prolific",1,19,2023-05-08T20:26:41+00:00,1.2706120014191,5,versionC_stim.csv,ReadVersion_Recog.csv,"Read Recog",Read3,AFFECTION,LOVE,Study1,F,31,38,Study,User,-,,Study/JOL,"Study Phase",,478,,,-1,-1,,,,1
644125940320fea474c2afd3,j805j873k6,"Mediated Recog Prolific",1,20,2023-05-08T20:26:43+00:00,1.8611319065094,5,versionC_stim.csv,ReadVersion_Recog.csv,"Read Recog",Read3,LITTER,TRASH,Study1,F,21,21,Study,User,-,,Study/JOL,"Study Phase",,461,,,-1,-1,,,,1
644125940320fea474c2afd3,j805j873k6,"Mediated Recog Prolific",1,21,2023-05-08T20:26:45+00:00,1.4937241077423,5,versionC_stim.csv,ReadVersion_Recog.csv,"Read Recog",Read3,BIRTHDAY,PIE,Study1,M,9,30,Study,User,-,,Study/JOL,"Study Phase",,547,,,-1,-1,,,,1
644125940320fea474c2afd3,j805j873k6,"Mediated Recog Prolific",1,22,2023-05-08T20:26:46+00:00,1.6734499931335,5,versionC_stim.csv,ReadVersion_Recog.csv,"Read Recog",Read3,HYGIENE,CLEAN,Study1,F,28,51,Study,User,-,,Study/JOL,"Study Phase",,1092,,,-1,-1,,,,1
644125940320fea474c2afd3,j805j873k6,"Mediated Recog Prolific",1,23,2023-05-08T20:26:47+00:00,1.1694140434265,5,versionC_stim.csv,ReadVersion_Recog.csv,"Read Recog",Read3,MULE,DONKEY,Study1,F,30,49,Study,User,-,,Study/JOL,"Study Phase",,412,,,-1,-1,,,,1
644125940320fea474c2afd3,j805j873k6,"Mediated Recog Prolific",1,24,2023-05-08T20:26:48+00:00,1.0202119350433,5,versionC_stim.csv,ReadVersion_Recog.csv,"Read Recog",Read3,BAT,BOUNCE,Study1,M,12,23,Study,User,-,,Study/JOL,"Study Phase",,404,,,-1,-1,,,,1
644125940320fea474c2afd3,j805j873k6,"Mediated Recog Prolific",1,25,2023-05-08T20:26:50+00:00,1.4569909572601,5,versionC_stim.csv,ReadVersion_Recog.csv,"Read Recog",Read3,SIGN,TICK,Study1,U,47,44,Study,User,-,,Study/JOL,"Study Phase",,388,,,-1,-1,,,,1
644125940320fea474c2afd3,j805j873k6,"Mediated Recog Prolific",1,26,2023-05-08T20:26:51+00:00,1.4741399288177,5,versionC_stim.csv,ReadVersion_Recog.csv,"Read Recog",Read3,TREE,SYRUP,Study1,M,11,26,Study,User,-,,Study/JOL,"Study Phase",,596,,,-1,-1,,,,1
644125940320fea474c2afd3,j805j873k6,"Mediated Recog Prolific",1,27,2023-05-08T20:26:53+00:00,1.5915701389313,5,versionC_stim.csv,ReadVersion_Recog.csv,"Read Recog",Read3,CRACKLE,ELECTION,Study1,U,39,36,Study,User,-,,Study/JOL,"Study Phase",,356,,,-1,-1,,,,1
644125940320fea474c2afd3,j805j873k6,"Mediated Recog Prolific",1,28,2023-05-08T20:26:54+00:00,1.2736840248108,5,versionC_stim.csv,ReadVersion_Recog.csv,"Read Recog",Read3,SWAN,BIRD,Study1,F,26,42,Study,User,-,,Study/JOL,"Study Phase",,394,,,-1,-1,,,,1
644125940320fea474c2afd3,j805j873k6,"Mediated Recog Prolific",1,29,2023-05-08T20:26:55+00:00,1.1679599285126,5,versionC_stim.csv,ReadVersion_Recog.csv,"Read Recog",Read3,MIRROR,MAROON,Study1,U,36,47,Study,User,-,,Study/JOL,"Study Phase",,555,,,-1,-1,,,,1
644125940320fea474c2afd3,j805j873k6,"Mediated Recog Prolific",1,30,2023-05-08T20:26:57+00:00,1.6060559749603,5,versionC_stim.csv,ReadVersion_Recog.csv,"Read Recog",Read3,CAKE,HAND,Study1,U,49,45,Study,User,-,,Study/JOL,"Study Phase",,195,,,-1,-1,,,,1
644125940320fea474c2afd3,j805j873k6,"Mediated Recog Prolific",1,31,2023-05-08T20:26:58+00:00,1.2094421386719,5,versionC_stim.csv,ReadVersion_Recog.csv,"Read Recog",Read3,LION,STRIPES,Study1,M,6,18,Study,User,-,,Study/JOL,"Study Phase",,339,,,-1,-1,,,,1
644125940320fea474c2afd3,j805j873k6,"Mediated Recog Prolific",1,32,2023-05-08T20:27:00+00:00,1.5628638267517,5,versionC_stim.csv,ReadVersion_Recog.csv,"Read Recog",Read3,ROUGH,SILK,Study1,M,10,28,Study,User,-,,Study/JOL,"Study Phase",,561,,,-1,-1,,,,1
644125940320fea474c2afd3,j805j873k6,"Mediated Recog Prolific",1,33,2023-05-08T20:27:03+00:00,2.8462991714478,5,versionC_stim.csv,ReadVersion_Recog.csv,"Read Recog",Read3,KEYS,ROD,Study1,U,45,20,Study,User,-,,Study/JOL,"Study Phase",,1891,,,-1,-1,,,,1
644125940320fea474c2afd3,j805j873k6,"Mediated Recog Prolific",1,34,2023-05-08T20:27:04+00:00,1.6612739562988,5,versionC_stim.csv,ReadVersion_Recog.csv,"Read Recog",Read3,LISTEN,FICTION,Study1,U,44,35,Study,User,-,,Study/JOL,"Study Phase",,605,,,-1,-1,,,,1
644125940320fea474c2afd3,j805j873k6,"Mediated Recog Prolific",1,35,2023-05-08T20:27:06+00:00,1.9550409317017,5,versionC_stim.csv,ReadVersion_Recog.csv,"Read Recog",Read3,WEDDING,FINGER,Study1,M,17,12,Study,User,-,,Study/JOL,"Study Phase",,815,,,-1,-1,,,,1
644125940320fea474c2afd3,j805j873k6,"Mediated Recog Prolific",1,36,2023-05-08T20:27:08+00:00,2.0295369625092,5,versionC_stim.csv,ReadVersion_Recog.csv,"Read Recog",Read3,MEAT,KEYS,Study1,U,41,43,Study,User,-,,Study/JOL,"Study Phase",,703,,,-1,-1,,,,1
644125940320fea474c2afd3,j805j873k6,"Mediated Recog Prolific",1,37,2023-05-08T20:27:10+00:00,1.9056270122528,5,versionC_stim.csv,ReadVersion_Recog.csv,"Read Recog",Read3,TEMPERATURE,MORNING,Study1,U,48,16,Study,User,-,,Study/JOL,"Study Phase",,1084,,,-1,-1,,,,1
644125940320fea474c2afd3,j805j873k6,"Mediated Recog Prolific",1,38,2023-05-08T20:27:12+00:00,2.1041960716248,5,versionC_stim.csv,ReadVersion_Recog.csv,"Read Recog",Read3,SIP,DRINK,Study1,F,32,8,Study,User,-,,Study/JOL,"Study Phase",,1130,,,-1,-1,,,,1
644125940320fea474c2afd3,j805j873k6,"Mediated Recog Prolific",1,39,2023-05-08T20:27:14+00:00,1.3609139919281,5,versionC_stim.csv,ReadVersion_Recog.csv,"Read Recog",Read3,HORSE,WHEEL,Study1,M,14,24,Study,User,-,,Study/JOL,"Study Phase",,545,,,-1,-1,,,,1
644125940320fea474c2afd3,j805j873k6,"Mediated Recog Prolific",1,40,2023-05-08T20:27:15+00:00,1.6095700263977,5,versionC_stim.csv,ReadVersion_Recog.csv,"Read Recog",Read3,MAZE,PHONE,Study1,U,42,34,Study,User,-,,Study/JOL,"Study Phase",,767,,,-1,-1,,,,1
644125940320fea474c2afd3,j805j873k6,"Mediated Recog Prolific",1,41,2023-05-08T20:27:18+00:00,3.1259858608246,5,versionC_stim.csv,ReadVersion_Recog.csv,"Read Recog",Read3,WAR,QUIET,Study1,M,8,33,Study,User,-,,Study/JOL,"Study Phase",,1774,,,-1,-1,,,,1
644125940320fea474c2afd3,j805j873k6,"Mediated Recog Prolific",1,42,2023-05-08T20:27:25+00:00,7.0626301765442,5,versionC_stim.csv,ReadVersion_Recog.csv,"Read Recog",Read3,FUZZY,BANG,Study1,U,50,14,Study,User,-,,Study/JOL,"Study Phase",,5835,,,-1,-1,,,,1
644125940320fea474c2afd3,j805j873k6,"Mediated Recog Prolific",1,43,2023-05-08T20:27:26+00:00,0.87624597549438,5,versionC_stim.csv,ReadVersion_Recog.csv,"Read Recog",Read3,HARD,COTTON,Study1,M,20,32,Study,User,-,,Study/JOL,"Study Phase",,430,,,-1,-1,,,,1
644125940320fea474c2afd3,j805j873k6,"Mediated Recog Prolific",1,44,2023-05-08T20:27:28+00:00,1.7523379325867,5,versionC_stim.csv,ReadVersion_Recog.csv,"Read Recog",Read3,CIRCLE,DANCE,Study1,M,13,22,Study,User,-,,Study/JOL,"Study Phase",,625,,,-1,-1,,,,1
644125940320fea474c2afd3,j805j873k6,"Mediated Recog Prolific",1,45,2023-05-08T20:27:30+00:00,2.1782939434052,5,versionC_stim.csv,ReadVersion_Recog.csv,"Read Recog",Read3,BEACH,BOX,Study1,M,7,27,Study,User,-,,Study/JOL,"Study Phase",,557,,,-1,-1,,,,1
644125940320fea474c2afd3,j805j873k6,"Mediated Recog Prolific",1,46,2023-05-08T20:27:33+00:00,3.2553510665894,5,versionC_stim.csv,ReadVersion_Recog.csv,"Read Recog",Read3,CEILING,CARPET,Study1,M,15,11,Study,User,-,,Study/JOL,"Study Phase",,1444,,,-1,-1,,,,1
644125940320fea474c2afd3,j805j873k6,"Mediated Recog Prolific",1,47,2023-05-08T20:27:35+00:00,1.6942729949951,5,versionC_stim.csv,ReadVersion_Recog.csv,"Read Recog",Read3,ORCHID,FLOWER,Study1,F,34,41,Study,User,-,,Study/JOL,"Study Phase",,367,,,-1,-1,,,,1
644125940320fea474c2afd3,j805j873k6,"Mediated Recog Prolific",1,48,2023-05-08T20:27:37+00:00,1.8950469493866,5,versionC_stim.csv,ReadVersion_Recog.csv,"Read Recog",Read3,WORD,SENTENCE,Study1,F,27,31,Study,User,-,,Study/JOL,"Study Phase",,1165,,,-1,-1,,,,1
644125940320fea474c2afd3,j805j873k6,"Mediated Recog Prolific",1,49,2023-05-08T20:27:39+00:00,1.6165630817413,5,versionC_stim.csv,ReadVersion_Recog.csv,"Read Recog",Read3,DAY,DARK,Study1,M,18,9,Study,User,-,,Study/JOL,"Study Phase",,337,,,-1,-1,,,,1
644125940320fea474c2afd3,j805j873k6,"Mediated Recog Prolific",1,50,2023-05-08T20:27:40+00:00,1.493155002594,5,versionC_stim.csv,ReadVersion_Recog.csv,"Read Recog",Read3,SHELL,SHAKE,Study1,U,43,48,Study,User,-,,Study/JOL,"Study Phase",,273,,,-1,-1,,,,1
644125940320fea474c2afd3,j805j873k6,"Mediated Recog Prolific",1,51,2023-05-08T20:27:41+00:00,0.86274290084839,5,versionC_stim.csv,ReadVersion_Recog.csv,"Read Recog",Read3,SOON,BELT,Study1,U,46,17,Study,User,-,,Study/JOL,"Study Phase",,295,,,-1,-1,,,,1
644125940320fea474c2afd3,j805j873k6,"Mediated Recog Prolific",1,52,2023-05-08T20:27:42+00:00,0.86285400390625,5,versionC_stim.csv,ReadVersion_Recog.csv,"Read Recog",Read3,CRY,BOTTLE,Study1,M,16,50,Study,User,-,,Study/JOL,"Study Phase",,143,,,-1,-1,,,,1
644125940320fea474c2afd3,j805j873k6,"Mediated Recog Prolific",1,53,2023-05-08T20:27:43+00:00,1.4036090373993,5,versionC_stim.csv,ReadVersion_Recog.csv,"Read Recog",Read3,MALT,CHOCOLATE,BUFFER2,Buffer,53,52,Study,User,-,,Study/JOL,BUFFER2,,160,,,-1,-1,,,,1
644125940320fea474c2afd3,j805j873k6,"Mediated Recog Prolific",1,54,2023-05-08T20:27:45+00:00,1.2978310585022,5,versionC_stim.csv,ReadVersion_Recog.csv,"Read Recog",Read3,SHERRIF,POLICE,BUFFER2,Buffer,52,56,Study,User,-,,Study/JOL,BUFFER2,,321,,,-1,-1,,,,1
644125940320fea474c2afd3,j805j873k6,"Mediated Recog Prolific",1,55,2023-05-08T20:27:46+00:00,1.5857350826263,5,versionC_stim.csv,ReadVersion_Recog.csv,"Read Recog",Read3,GEESE,GOOSE,BUFFER2,Buffer,51,53,Study,User,-,,Study/JOL,BUFFER2,,465,,,-1,-1,,,,1
644125940320fea474c2afd3,j805j873k6,"Mediated Recog Prolific",1,56,2023-05-08T20:27:47+00:00,1.2696588039398,5,versionC_stim.csv,ReadVersion_Recog.csv,"Read Recog",Read3,THING,STUFF,BUFFER2,Buffer,55,55,Study,User,-,,Study/JOL,BUFFER2,,168,,,-1,-1,,,,1
644125940320fea474c2afd3,j805j873k6,"Mediated Recog Prolific",1,57,2023-05-08T20:27:48+00:00,0.90134406089783,5,versionC_stim.csv,ReadVersion_Recog.csv,"Read Recog",Read3,MOON,SPACE,BUFFER2,Buffer,54,54,Study,User,-,,Study/JOL,BUFFER2,,305,,,-1,-1,,,,1
644125940320fea474c2afd3,j805j873k6,"Mediated Recog Prolific",1,58,2023-05-08T20:27:50+00:00,1.3616020679474,5,versionC_stim.csv,ReadVersion_Recog.csv,"Read Recog",Read3,,,,,,0,Instruct,User,-,"You have completed this section. Please press Enter.",Filler_Instruction,Instruct2,,101,,,-1,-1,,,,1
644125940320fea474c2afd3,j805j873k6,"Mediated Recog Prolific",1,59,2023-05-08T20:29:51+00:00,121.18465900421,5,versionC_stim.csv,ReadVersion_Recog.csv,"Read Recog",Read3,,,,,,0,FreeRecall,120,120,"Please list the 50 US states in alphabetical order. The task will automatically advance to the next screen after two minutes.",,Filler1,,120001,"alabama alaska arizona arkansas california colorado conneticut delaware florida georgia hawaii idaho illinois indiana iowa kansas kentucky louisiana maine maryland massachusetts michigan minnesota mississippi missouri montana nebraska nevada new hampshire new jersey new mexico new york north carolina north dakota ohio oklahoma oregon pennsylvania rhode island south carolina south dakota tennessee texas utah vermont virginia ",0,22202,113686,0,0,,0.868
644125940320fea474c2afd3,j805j873k6,"Mediated Recog Prolific",1,60,2023-05-08T20:30:06+00:00,15.272932052612,5,versionC_stim.csv,ReadVersion_Recog.csv,"Read Recog",Read3,,,,,,0,Instruct,User,10,"Your memory will now be tested. You will be presented with a series of words that may or may not have been previously presented alongside another word. If the word on the screen was previously studied, please select YES. If the word was not studied, select NO. PLEASE DO NOT SKIP ITEMS! Click next when you are ready to begin.",,Instruc7982154d,,14702,,,-1,-1,,,,0.892
644125940320fea474c2afd3,j805j873k6,"Mediated Recog Prolific",1,61,2023-05-08T20:30:10+00:00,4.0410969257355,5,versionC_stim.csv,ReadVersion_Recog.csv,"Read Recog",Read3,,LAWYER,RECOG,CONTROL,62,62,Likert,User,1,"Was this item previously studied?",CONTROL,Recog,1::2,3572,NO,0,-1,-1,0,0,,1
644125940320fea474c2afd3,j805j873k6,"Mediated Recog Prolific",1,62,2023-05-08T20:30:14+00:00,3.5975050926208,5,versionC_stim.csv,ReadVersion_Recog.csv,"Read Recog",Read3,,PHONE,RECOG,Presented,138,126,Likert,User,1,"Was this item previously studied?",PRESENTED,Recog,1::2,3125,YES,25,-1,-1,0,0,,1
644125940320fea474c2afd3,j805j873k6,"Mediated Recog Prolific",1,63,2023-05-08T20:30:17+00:00,3.1606748104095,5,versionC_stim.csv,ReadVersion_Recog.csv,"Read Recog",Read3,,ROD,RECOG,Presented,141,121,Likert,User,1,"Was this item previously studied?",PRESENTED,Recog,1::2,2714,NO,40,-1,-1,0,0,,1
644125940320fea474c2afd3,j805j873k6,"Mediated Recog Prolific",1,64,2023-05-08T20:30:20+00:00,3.0023560523987,5,versionC_stim.csv,ReadVersion_Recog.csv,"Read Recog",Read3,,STRIPES,RECOG,Presented,102,122,Likert,User,1,"Was this item previously studied?",PRESENTED,Recog,1::2,1878,YES,40,-1,-1,0,0,,1
644125940320fea474c2afd3,j805j873k6,"Mediated Recog Prolific",1,65,2023-05-08T20:30:22+00:00,2.1522190570831,5,versionC_stim.csv,ReadVersion_Recog.csv,"Read Recog",Read3,,HEAD,RECOG,Presented,119,80,Likert,User,1,"Was this item previously studied?",CONTROL,Recog,1::2,1282,YES,28.571428571429,-1,-1,0,0,,1
644125940320fea474c2afd3,j805j873k6,"Mediated Recog Prolific",1,66,2023-05-08T20:30:24+00:00,2.3038499355316,5,versionC_stim.csv,ReadVersion_Recog.csv,"Read Recog",Read3,,BUG,RECOG,CONTROL,85,125,Likert,User,1,"Was this item previously studied?",PRESENTED,Recog,1::2,1326,YES,0,-1,-1,0,0,,1
644125940320fea474c2afd3,j805j873k6,"Mediated Recog Prolific",1,67,2023-05-08T20:30:27+00:00,2.304388999939,5,versionC_stim.csv,ReadVersion_Recog.csv,"Read Recog",Read3,,CAVE,RECOG,CONTROL,66,124,Likert,User,1,"Was this item previously studied?",PRESENTED,Recog,1::2,1425,YES,28.571428571429,-1,-1,0,0,,1
644125940320fea474c2afd3,j805j873k6,"Mediated Recog Prolific",1,68,2023-05-08T20:30:29+00:00,2.72922706604,5,versionC_stim.csv,ReadVersion_Recog.csv,"Read Recog",Read3,,HAMMER,RECOG,CONTROL,74,113,Likert,User,1,"Was this item previously studied?",PRESENTED,Recog,1::2,1269,YES,22.222222222222,-1,-1,0,0,,1
644125940320fea474c2afd3,j805j873k6,"Mediated Recog Prolific",1,69,2023-05-08T20:30:32+00:00,2.4196748733521,5,versionC_stim.csv,ReadVersion_Recog.csv,"Read Recog",Read3,,DONKEY,RECOG,Presented,126,127,Likert,User,1,"Was this item previously studied?",PRESENTED,Recog,1::2,1585,NO,25,-1,-1,0,0,,1
644125940320fea474c2afd3,j805j873k6,"Mediated Recog Prolific",1,70,2023-05-08T20:30:34+00:00,2.5792450904846,5,versionC_stim.csv,ReadVersion_Recog.csv,"Read Recog",Read3,,PIE,RECOG,Presented,105,100,Likert,User,1,"Was this item previously studied?",CONTROL,Recog,1::2,1505,YES,33.333333333333,-1,-1,0,0,,1
644125940320fea474c2afd3,j805j873k6,"Mediated Recog Prolific",1,71,2023-05-08T20:30:38+00:00,3.3076019287109,5,versionC_stim.csv,ReadVersion_Recog.csv,"Read Recog",Read3,,FLOWER,RECOG,Presented,130,98,Likert,User,1,"Was this item previously studied?",CONTROL,Recog,1::2,1958,YES,22.222222222222,-1,-1,0,0,,1
644125940320fea474c2afd3,j805j873k6,"Mediated Recog Prolific",1,72,2023-05-08T20:30:46+00:00,7.7689909934998,5,versionC_stim.csv,ReadVersion_Recog.csv,"Read Recog",Read3,,SHAKE,RECOG,Presented,139,130,Likert,User,1,"Was this item previously studied?",PRESENTED,Recog,1::2,6463,YES,25,-1,-1,0,0,,0.818
644125940320fea474c2afd3,j805j873k6,"Mediated Recog Prolific",1,73,2023-05-08T20:30:51+00:00,5.3559150695801,5,versionC_stim.csv,ReadVersion_Recog.csv,"Read Recog",Read3,,BOTTLE,RECOG,Presented,112,78,Likert,User,1,"Was this item previously studied?",CONTROL,Recog,1::2,4501,YES,22.222222222222,-1,-1,0,0,,0.696
644125940320fea474c2afd3,j805j873k6,"Mediated Recog Prolific",1,74,2023-05-08T20:31:04+00:00,12.746118068695,5,versionC_stim.csv,ReadVersion_Recog.csv,"Read Recog",Read3,,SENTENCE,RECOG,Presented,123,111,Likert,User,1,"Was this item previously studied?",PRESENTED,Recog,1::2,10480,YES,18.181818181818,-1,-1,0,0,,1
644125940320fea474c2afd3,j805j873k6,"Mediated Recog Prolific",1,75,2023-05-08T20:31:06+00:00,2.2973718643188,5,versionC_stim.csv,ReadVersion_Recog.csv,"Read Recog",Read3,,RIDDLE,RECOG,CONTROL,91,116,Likert,User,1,"Was this item previously studied?",PRESENTED,Recog,1::2,1344,YES,22.222222222222,-1,-1,0,0,,1
644125940320fea474c2afd3,j805j873k6,"Mediated Recog Prolific",1,76,2023-05-08T20:31:10+00:00,4.1971080303192,5,versionC_stim.csv,ReadVersion_Recog.csv,"Read Recog",Read3,,DRINK,RECOG,CONTROL,63,136,Likert,User,1,"Was this item previously studied?",PRESENTED,Recog,1::2,2825,YES,0,-1,-1,0,0,,1
644125940320fea474c2afd3,j805j873k6,"Mediated Recog Prolific",1,77,2023-05-08T20:31:13+00:00,3.0410640239716,5,versionC_stim.csv,ReadVersion_Recog.csv,"Read Recog",Read3,,TOIL,RECOG,CONTROL,97,143,Likert,User,1,"Was this item previously studied?",PRESENTED,Recog,1::2,2422,NO,33.333333333333,-1,-1,0,0,,1
644125940320fea474c2afd3,j805j873k6,"Mediated Recog Prolific",1,78,2023-05-08T20:31:16+00:00,2.8794739246368,5,versionC_stim.csv,ReadVersion_Recog.csv,"Read Recog",Read3,,BUSINESS,RECOG,CONTROL,95,146,Likert,User,1,"Was this item previously studied?",PRESENTED,Recog,1::2,1759,YES,36.363636363636,-1,-1,0,0,,1
644125940320fea474c2afd3,j805j873k6,"Mediated Recog Prolific",1,79,2023-05-08T20:31:19+00:00,2.8517451286316,5,versionC_stim.csv,ReadVersion_Recog.csv,"Read Recog",Read3,,PLANT,RECOG,Presented,121,142,Likert,User,1,"Was this item previously studied?",PRESENTED,Recog,1::2,1977,YES,0,-1,-1,0,0,,1
644125940320fea474c2afd3,j805j873k6,"Mediated Recog Prolific",1,80,2023-05-08T20:31:21+00:00,2.41086602211,5,versionC_stim.csv,ReadVersion_Recog.csv,"Read Recog",Read3,,WOLF,RECOG,CONTROL,89,134,Likert,User,1,"Was this item previously studied?",PRESENTED,Recog,1::2,1603,NO,33.333333333333,-1,-1,0,0,,1
644125940320fea474c2afd3,j805j873k6,"Mediated Recog Prolific",1,81,2023-05-08T20:31:24+00:00,2.404168844223,5,versionC_stim.csv,ReadVersion_Recog.csv,"Read Recog",Read3,,SNOW,RECOG,CONTROL,57,59,Likert,User,1,"Was this item previously studied?",CONTROL,Recog,1::2,1484,YES,28.571428571429,-1,-1,0,0,,1
644125940320fea474c2afd3,j805j873k6,"Mediated Recog Prolific",1,82,2023-05-08T20:31:29+00:00,5.0576021671295,5,versionC_stim.csv,ReadVersion_Recog.csv,"Read Recog",Read3,,CLOTH,RECOG,Presented,133,73,Likert,User,1,"Was this item previously studied?",CONTROL,Recog,1::2,3157,YES,0,-1,-1,0,0,,1
644125940320fea474c2afd3,j805j873k6,"Mediated Recog Prolific",1,83,2023-05-08T20:31:33+00:00,4.2356698513031,5,versionC_stim.csv,ReadVersion_Recog.csv,"Read Recog",Read3,,LOVE,RECOG,Presented,127,91,Likert,User,1,"Was this item previously studied?",CONTROL,Recog,1::2,3573,YES,28.571428571429,-1,-1,0,0,,1
644125940320fea474c2afd3,j805j873k6,"Mediated Recog Prolific",1,84,2023-05-08T20:31:36+00:00,3.122004032135,5,versionC_stim.csv,ReadVersion_Recog.csv,"Read Recog",Read3,,DARK,RECOG,Presented,114,118,Likert,User,1,"Was this item previously studied?",PRESENTED,Recog,1::2,2202,NO,0,-1,-1,0,0,,1
644125940320fea474c2afd3,j805j873k6,"Mediated Recog Prolific",1,85,2023-05-08T20:31:43+00:00,6.5375261306763,5,versionC_stim.csv,ReadVersion_Recog.csv,"Read Recog",Read3,,FIRE,RECOG,CONTROL,77,133,Likert,User,1,"Was this item previously studied?",PRESENTED,Recog,1::2,5222,YES,28.571428571429,-1,-1,0,0,,1
644125940320fea474c2afd3,j805j873k6,"Mediated Recog Prolific",1,86,2023-05-08T20:31:46+00:00,3.7213249206543,5,versionC_stim.csv,ReadVersion_Recog.csv,"Read Recog",Read3,,RED,RECOG,CONTROL,76,63,Likert,User,1,"Was this item previously studied?",CONTROL,Recog,1::2,3088,NO,0,-1,-1,0,0,,1
644125940320fea474c2afd3,j805j873k6,"Mediated Recog Prolific",1,87,2023-05-08T20:31:57+00:00,10.418679952621,5,versionC_stim.csv,ReadVersion_Recog.csv,"Read Recog",Read3,,CHARM,RECOG,Presented,136,107,Likert,User,1,"Was this item previously studied?",PRESENTED,Recog,1::2,9822,YES,0,-1,-1,0,0,,1
644125940320fea474c2afd3,j805j873k6,"Mediated Recog Prolific",1,88,2023-05-08T20:32:00+00:00,2.7229280471802,5,versionC_stim.csv,ReadVersion_Recog.csv,"Read Recog",Read3,,TICK,RECOG,Presented,143,138,Likert,User,1,"Was this item previously studied?",PRESENTED,Recog,1::2,2212,YES,0,-1,-1,0,0,,1
644125940320fea474c2afd3,j805j873k6,"Mediated Recog Prolific",1,89,2023-05-08T20:32:07+00:00,7.9320039749146,5,versionC_stim.csv,ReadVersion_Recog.csv,"Read Recog",Read3,,STOP,RECOG,CONTROL,58,119,Likert,User,1,"Was this item previously studied?",PRESENTED,Recog,1::2,7111,NO,33.333333333333,-1,-1,0,0,,1
644125940320fea474c2afd3,j805j873k6,"Mediated Recog Prolific",1,90,2023-05-08T20:32:11+00:00,3.7540500164032,5,versionC_stim.csv,ReadVersion_Recog.csv,"Read Recog",Read3,,PAPER,RECOG,CONTROL,78,99,Likert,User,1,"Was this item previously studied?",CONTROL,Recog,1::2,3293,YES,25,-1,-1,0,0,,1
644125940320fea474c2afd3,j805j873k6,"Mediated Recog Prolific",1,91,2023-05-08T20:32:15+00:00,3.5454609394073,5,versionC_stim.csv,ReadVersion_Recog.csv,"Read Recog",Read3,,QUIET,RECOG,Presented,104,64,Likert,User,1,"Was this item previously studied?",CONTROL,Recog,1::2,2677,YES,25,-1,-1,0,0,,1
644125940320fea474c2afd3,j805j873k6,"Mediated Recog Prolific",1,92,2023-05-08T20:32:18+00:00,2.8030030727386,5,versionC_stim.csv,ReadVersion_Recog.csv,"Read Recog",Read3,,PEAK,RECOG,CONTROL,69,132,Likert,User,1,"Was this item previously studied?",PRESENTED,Recog,1::2,2209,NO,0,-1,-1,0,0,,1
644125940320fea474c2afd3,j805j873k6,"Mediated Recog Prolific",1,93,2023-05-08T20:32:24+00:00,6.8136548995972,5,versionC_stim.csv,ReadVersion_Recog.csv,"Read Recog",Read3,,BOX,RECOG,Presented,103,109,Likert,User,1,"Was this item previously studied?",PRESENTED,Recog,1::2,6056,YES,0,-1,-1,0,0,,1
644125940320fea474c2afd3,j805j873k6,"Mediated Recog Prolific",1,94,2023-05-08T20:32:29+00:00,4.4510440826416,5,versionC_stim.csv,ReadVersion_Recog.csv,"Read Recog",Read3,,LEG,RECOG,CONTROL,101,79,Likert,User,1,"Was this item previously studied?",CONTROL,Recog,1::2,3978,YES,33.333333333333,-1,-1,0,0,,1
644125940320fea474c2afd3,j805j873k6,"Mediated Recog Prolific",1,95,2023-05-08T20:32:33+00:00,4.1084420681,5,versionC_stim.csv,ReadVersion_Recog.csv,"Read Recog",Read3,,MAROON,RECOG,Presented,132,105,Likert,User,1,"Was this item previously studied?",PRESENTED,Recog,1::2,2416,NO,25,-1,-1,0,0,,1
644125940320fea474c2afd3,j805j873k6,"Mediated Recog Prolific",1,96,2023-05-08T20:32:38+00:00,5.2860999107361,5,versionC_stim.csv,ReadVersion_Recog.csv,"Read Recog",Read3,,HORN,RECOG,CONTROL,94,88,Likert,User,1,"Was this item previously studied?",CONTROL,Recog,1::2,4710,YES,0,-1,-1,0,0,,1
644125940320fea474c2afd3,j805j873k6,"Mediated Recog Prolific",1,97,2023-05-08T20:32:41+00:00,2.6099441051483,5,versionC_stim.csv,ReadVersion_Recog.csv,"Read Recog",Read3,,SACK,RECOG,CONTROL,93,66,Likert,User,1,"Was this item previously studied?",CONTROL,Recog,1::2,2036,YES,28.571428571429,-1,-1,0,0,,1
644125940320fea474c2afd3,j805j873k6,"Mediated Recog Prolific",1,98,2023-05-08T20:32:43+00:00,2.3525650501251,5,versionC_stim.csv,ReadVersion_Recog.csv,"Read Recog",Read3,,CLUTTER,RECOG,CONTROL,92,84,Likert,User,1,"Was this item previously studied?",CONTROL,Recog,1::2,1555,YES,20,-1,-1,0,0,,1
644125940320fea474c2afd3,j805j873k6,"Mediated Recog Prolific",1,99,2023-05-08T20:32:46+00:00,2.9818317890167,5,versionC_stim.csv,ReadVersion_Recog.csv,"Read Recog",Read3,,CLEAN,RECOG,Presented,124,112,Likert,User,1,"Was this item previously studied?",PRESENTED,Recog,1::2,1950,YES,25,-1,-1,0,0,,1
644125940320fea474c2afd3,j805j873k6,"Mediated Recog Prolific",1,100,2023-05-08T20:32:48+00:00,2.1900420188904,5,versionC_stim.csv,ReadVersion_Recog.csv,"Read Recog",Read3,,ISLAND,RECOG,CONTROL,60,108,Likert,User,1,"Was this item previously studied?",PRESENTED,Recog,1::2,1254,NO,25,-1,-1,0,0,,1
644125940320fea474c2afd3,j805j873k6,"Mediated Recog Prolific",1,101,2023-05-08T20:32:51+00:00,2.8019640445709,5,versionC_stim.csv,ReadVersion_Recog.csv,"Read Recog",Read3,,CARD,RECOG,Presented,129,102,Likert,User,1,"Was this item previously studied?",PRESENTED,Recog,1::2,1934,NO,0,-1,-1,0,0,,1
644125940320fea474c2afd3,j805j873k6,"Mediated Recog Prolific",1,102,2023-05-08T20:32:54+00:00,2.3292911052704,5,versionC_stim.csv,ReadVersion_Recog.csv,"Read Recog",Read3,,VASE,RECOG,CONTROL,87,106,Likert,User,1,"Was this item previously studied?",PRESENTED,Recog,1::2,1366,NO,0,-1,-1,0,0,,1
644125940320fea474c2afd3,j805j873k6,"Mediated Recog Prolific",1,103,2023-05-08T20:33:18+00:00,24.263505935669,5,versionC_stim.csv,ReadVersion_Recog.csv,"Read Recog",Read3,,FINGER,RECOG,Presented,113,86,Likert,User,1,"Was this item previously studied?",CONTROL,Recog,1::2,23474,NO,25,-1,-1,0,0,,1
644125940320fea474c2afd3,j805j873k6,"Mediated Recog Prolific",1,104,2023-05-08T20:33:20+00:00,2.1356799602509,5,versionC_stim.csv,ReadVersion_Recog.csv,"Read Recog",Read3,,CHILDREN,RECOG,CONTROL,100,87,Likert,User,1,"Was this item previously studied?",CONTROL,Recog,1::2,1433,YES,18.181818181818,-1,-1,0,0,,1
644125940320fea474c2afd3,j805j873k6,"Mediated Recog Prolific",1,105,2023-05-08T20:33:23+00:00,2.7007429599762,5,versionC_stim.csv,ReadVersion_Recog.csv,"Read Recog",Read3,,HIDE,RECOG,CONTROL,96,83,Likert,User,1,"Was this item previously studied?",CONTROL,Recog,1::2,1342,YES,28.571428571429,-1,-1,0,0,,1
644125940320fea474c2afd3,j805j873k6,"Mediated Recog Prolific",1,106,2023-05-08T20:33:25+00:00,2.0983200073242,5,versionC_stim.csv,ReadVersion_Recog.csv,"Read Recog",Read3,,CUT,RECOG,CONTROL,73,82,Likert,User,1,"Was this item previously studied?",CONTROL,Recog,1::2,1042,NO,0,-1,-1,0,0,,1
644125940320fea474c2afd3,j805j873k6,"Mediated Recog Prolific",1,107,2023-05-08T20:33:26+00:00,1.7455339431763,5,versionC_stim.csv,ReadVersion_Recog.csv,"Read Recog",Read3,,TRASH,RECOG,Presented,117,68,Likert,User,1,"Was this item previously studied?",CONTROL,Recog,1::2,1012,YES,25,-1,-1,0,0,,1
644125940320fea474c2afd3,j805j873k6,"Mediated Recog Prolific",1,108,2023-05-08T20:33:29+00:00,2.8904871940613,5,versionC_stim.csv,ReadVersion_Recog.csv,"Read Recog",Read3,,KNOB,RECOG,CONTROL,70,120,Likert,User,1,"Was this item previously studied?",PRESENTED,Recog,1::2,1974,YES,0,-1,-1,0,0,,1
644125940320fea474c2afd3,j805j873k6,"Mediated Recog Prolific",1,109,2023-05-08T20:33:33+00:00,3.3910889625549,5,versionC_stim.csv,ReadVersion_Recog.csv,"Read Recog",Read3,,COLLAR,RECOG,CONTROL,59,60,Likert,User,1,"Was this item previously studied?",CONTROL,Recog,1::2,1853,NO,25,-1,-1,0,0,,1
644125940320fea474c2afd3,j805j873k6,"Mediated Recog Prolific",1,110,2023-05-08T20:33:35+00:00,2.5233380794525,5,versionC_stim.csv,ReadVersion_Recog.csv,"Read Recog",Read3,,FICTION,RECOG,Presented,140,81,Likert,User,1,"Was this item previously studied?",CONTROL,Recog,1::2,1946,NO,22.222222222222,-1,-1,0,0,,1
644125940320fea474c2afd3,j805j873k6,"Mediated Recog Prolific",1,111,2023-05-08T20:33:37+00:00,2.2009589672089,5,versionC_stim.csv,ReadVersion_Recog.csv,"Read Recog",Read3,,COTTON,RECOG,Presented,116,75,Likert,User,1,"Was this item previously studied?",CONTROL,Recog,1::2,1466,NO,25,-1,-1,0,0,,1
644125940320fea474c2afd3,j805j873k6,"Mediated Recog Prolific",1,112,2023-05-08T20:33:40+00:00,2.2183859348297,5,versionC_stim.csv,ReadVersion_Recog.csv,"Read Recog",Read3,,SMELL,RECOG,CONTROL,61,129,Likert,User,1,"Was this item previously studied?",PRESENTED,Recog,1::2,1364,NO,0,-1,-1,0,0,,1
644125940320fea474c2afd3,j805j873k6,"Mediated Recog Prolific",1,113,2023-05-08T20:33:42+00:00,2.3730530738831,5,versionC_stim.csv,ReadVersion_Recog.csv,"Read Recog",Read3,,SEED,RECOG,CONTROL,65,117,Likert,User,1,"Was this item previously studied?",PRESENTED,Recog,1::2,1470,YES,28.571428571429,-1,-1,0,0,,1
644125940320fea474c2afd3,j805j873k6,"Mediated Recog Prolific",1,114,2023-05-08T20:33:44+00:00,2.0063028335571,5,versionC_stim.csv,ReadVersion_Recog.csv,"Read Recog",Read3,,OUNCE,RECOG,CONTROL,98,135,Likert,User,1,"Was this item previously studied?",PRESENTED,Recog,1::2,1165,NO,28.571428571429,-1,-1,0,0,,1
644125940320fea474c2afd3,j805j873k6,"Mediated Recog Prolific",1,115,2023-05-08T20:33:50+00:00,6.1098511219025,5,versionC_stim.csv,ReadVersion_Recog.csv,"Read Recog",Read3,,BOUNCE,RECOG,Presented,108,74,Likert,User,1,"Was this item previously studied?",CONTROL,Recog,1::2,5172,YES,22.222222222222,-1,-1,0,0,,1
644125940320fea474c2afd3,j805j873k6,"Mediated Recog Prolific",1,116,2023-05-08T20:33:55+00:00,5.1027050018311,5,versionC_stim.csv,ReadVersion_Recog.csv,"Read Recog",Read3,,WATER,RECOG,CONTROL,86,96,Likert,User,1,"Was this item previously studied?",CONTROL,Recog,1::2,3292,YES,25,-1,-1,0,0,,1
644125940320fea474c2afd3,j805j873k6,"Mediated Recog Prolific",1,117,2023-05-08T20:34:00+00:00,4.4275839328766,5,versionC_stim.csv,ReadVersion_Recog.csv,"Read Recog",Read3,,SLEEP,RECOG,Presented,125,71,Likert,User,1,"Was this item previously studied?",CONTROL,Recog,1::2,3882,YES,25,-1,-1,0,0,,1
644125940320fea474c2afd3,j805j873k6,"Mediated Recog Prolific",1,118,2023-05-08T20:34:06+00:00,6.5205330848694,5,versionC_stim.csv,ReadVersion_Recog.csv,"Read Recog",Read3,,WHEEL,RECOG,Presented,110,110,Likert,User,1,"Was this item previously studied?",PRESENTED,Recog,1::2,5374,YES,25,-1,-1,0,0,,1
644125940320fea474c2afd3,j805j873k6,"Mediated Recog Prolific",1,119,2023-05-08T20:34:11+00:00,4.6748189926147,5,versionC_stim.csv,ReadVersion_Recog.csv,"Read Recog",Read3,,CAR,RECOG,CONTROL,88,104,Likert,User,1,"Was this item previously studied?",PRESENTED,Recog,1::2,4154,NO,0,-1,-1,0,0,,1
644125940320fea474c2afd3,j805j873k6,"Mediated Recog Prolific",1,120,2023-05-08T20:34:16+00:00,4.744570016861,5,versionC_stim.csv,ReadVersion_Recog.csv,"Read Recog",Read3,,SILK,RECOG,Presented,106,65,Likert,User,1,"Was this item previously studied?",CONTROL,Recog,1::2,3940,YES,28.571428571429,-1,-1,0,0,,1
644125940320fea474c2afd3,j805j873k6,"Mediated Recog Prolific",1,121,2023-05-08T20:34:21+00:00,5.254606962204,5,versionC_stim.csv,ReadVersion_Recog.csv,"Read Recog",Read3,,FISH,RECOG,Presented,131,93,Likert,User,1,"Was this item previously studied?",CONTROL,Recog,1::2,4645,YES,28.571428571429,-1,-1,0,0,,1
644125940320fea474c2afd3,j805j873k6,"Mediated Recog Prolific",1,122,2023-05-08T20:34:23+00:00,2.1547138690948,5,versionC_stim.csv,ReadVersion_Recog.csv,"Read Recog",Read3,,MUSCLE,RECOG,CONTROL,71,58,Likert,User,1,"Was this item previously studied?",CONTROL,Recog,1::2,1048,NO,0,-1,-1,0,0,,1
644125940320fea474c2afd3,j805j873k6,"Mediated Recog Prolific",1,123,2023-05-08T20:34:26+00:00,3.1585381031036,5,versionC_stim.csv,ReadVersion_Recog.csv,"Read Recog",Read3,,BRONZE,RECOG,CONTROL,99,69,Likert,User,1,"Was this item previously studied?",CONTROL,Recog,1::2,1542,NO,25,-1,-1,0,0,,1
644125940320fea474c2afd3,j805j873k6,"Mediated Recog Prolific",1,124,2023-05-08T20:34:29+00:00,2.3085699081421,5,versionC_stim.csv,ReadVersion_Recog.csv,"Read Recog",Read3,,DANCE,RECOG,Presented,109,92,Likert,User,1,"Was this item previously studied?",CONTROL,Recog,1::2,1465,YES,25,-1,-1,0,0,,1
644125940320fea474c2afd3,j805j873k6,"Mediated Recog Prolific",1,125,2023-05-08T20:34:30+00:00,1.8347370624542,5,versionC_stim.csv,ReadVersion_Recog.csv,"Read Recog",Read3,,ELECTION,RECOG,Presented,135,128,Likert,User,1,"Was this item previously studied?",PRESENTED,Recog,1::2,1329,YES,18.181818181818,-1,-1,0,0,,1
644125940320fea474c2afd3,j805j873k6,"Mediated Recog Prolific",1,126,2023-05-08T20:34:34+00:00,3.6085090637207,5,versionC_stim.csv,ReadVersion_Recog.csv,"Read Recog",Read3,,KEYS,RECOG,Presented,137,94,Likert,User,1,"Was this item previously studied?",CONTROL,Recog,1::2,2213,NO,0,-1,-1,0,0,,1
644125940320fea474c2afd3,j805j873k6,"Mediated Recog Prolific",1,127,2023-05-08T20:34:39+00:00,4.6419739723206,5,versionC_stim.csv,ReadVersion_Recog.csv,"Read Recog",Read3,,BELT,RECOG,Presented,142,95,Likert,User,1,"Was this item previously studied?",CONTROL,Recog,1::2,3343,YES,28.571428571429,-1,-1,0,0,,1
644125940320fea474c2afd3,j805j873k6,"Mediated Recog Prolific",1,128,2023-05-08T20:34:49+00:00,10.145247936249,5,versionC_stim.csv,ReadVersion_Recog.csv,"Read Recog",Read3,,COLD,RECOG,CONTROL,83,90,Likert,User,1,"Was this item previously studied?",CONTROL,Recog,1::2,8998,NO,33.333333333333,-1,-1,0,0,,1
644125940320fea474c2afd3,j805j873k6,"Mediated Recog Prolific",1,129,2023-05-08T20:34:52+00:00,3.2197179794312,5,versionC_stim.csv,ReadVersion_Recog.csv,"Read Recog",Read3,,BANG,RECOG,Presented,146,97,Likert,User,1,"Was this item previously studied?",CONTROL,Recog,1::2,1790,YES,0,-1,-1,0,0,,1
644125940320fea474c2afd3,j805j873k6,"Mediated Recog Prolific",1,130,2023-05-08T20:34:54+00:00,1.9911301136017,5,versionC_stim.csv,ReadVersion_Recog.csv,"Read Recog",Read3,,SMELL,RECOG,CONTROL,79,72,Likert,User,1,"Was this item previously studied?",CONTROL,Recog,1::2,1492,YES,25,-1,-1,0,0,,1
644125940320fea474c2afd3,j805j873k6,"Mediated Recog Prolific",1,131,2023-05-08T20:34:56+00:00,2.4669449329376,5,versionC_stim.csv,ReadVersion_Recog.csv,"Read Recog",Read3,,HAND,RECOG,Presented,145,145,Likert,User,1,"Was this item previously studied?",PRESENTED,Recog,1::2,1675,NO,33.333333333333,-1,-1,0,0,,1
644125940320fea474c2afd3,j805j873k6,"Mediated Recog Prolific",1,132,2023-05-08T20:34:59+00:00,2.2575440406799,5,versionC_stim.csv,ReadVersion_Recog.csv,"Read Recog",Read3,,HAIR,RECOG,Presented,115,85,Likert,User,1,"Was this item previously studied?",CONTROL,Recog,1::2,1437,YES,0,-1,-1,0,0,,1
644125940320fea474c2afd3,j805j873k6,"Mediated Recog Prolific",1,133,2023-05-08T20:35:01+00:00,2.1445889472961,5,versionC_stim.csv,ReadVersion_Recog.csv,"Read Recog",Read3,,FEATHER,RECOG,CONTROL,64,67,Likert,User,1,"Was this item previously studied?",CONTROL,Recog,1::2,1431,NO,0,-1,-1,0,0,,1
644125940320fea474c2afd3,j805j873k6,"Mediated Recog Prolific",1,134,2023-05-08T20:35:03+00:00,2.6311330795288,5,versionC_stim.csv,ReadVersion_Recog.csv,"Read Recog",Read3,,SYRUP,RECOG,Presented,107,70,Likert,User,1,"Was this item previously studied?",CONTROL,Recog,1::2,1312,NO,0,-1,-1,0,0,,1
644125940320fea474c2afd3,j805j873k6,"Mediated Recog Prolific",1,135,2023-05-08T20:35:06+00:00,2.5762119293213,5,versionC_stim.csv,ReadVersion_Recog.csv,"Read Recog",Read3,,BASKET,RECOG,CONTROL,67,123,Likert,User,1,"Was this item previously studied?",PRESENTED,Recog,1::2,1280,YES,22.222222222222,-1,-1,0,0,,1
644125940320fea474c2afd3,j805j873k6,"Mediated Recog Prolific",1,136,2023-05-08T20:35:11+00:00,4.5221660137177,5,versionC_stim.csv,ReadVersion_Recog.csv,"Read Recog",Read3,,STING,RECOG,CONTROL,81,101,Likert,User,1,"Was this item previously studied?",CONTROL,Recog,1::2,3253,YES,25,-1,-1,0,0,,1
644125940320fea474c2afd3,j805j873k6,"Mediated Recog Prolific",1,137,2023-05-08T20:35:15+00:00,4.4792931079865,5,versionC_stim.csv,ReadVersion_Recog.csv,"Read Recog",Read3,,DRINK,RECOG,Presented,128,103,Likert,User,1,"Was this item previously studied?",PRESENTED,Recog,1::2,3148,YES,0,-1,-1,0,0,,1
644125940320fea474c2afd3,j805j873k6,"Mediated Recog Prolific",1,138,2023-05-08T20:35:19+00:00,4.055312871933,5,versionC_stim.csv,ReadVersion_Recog.csv,"Read Recog",Read3,,CLOTHES,RECOG,CONTROL,75,115,Likert,User,1,"Was this item previously studied?",PRESENTED,Recog,1::2,2833,NO,22.222222222222,-1,-1,0,0,,1
644125940320fea474c2afd3,j805j873k6,"Mediated Recog Prolific",1,139,2023-05-08T20:35:25+00:00,6.1974449157715,5,versionC_stim.csv,ReadVersion_Recog.csv,"Read Recog",Read3,,ACCIDENT,RECOG,CONTROL,90,144,Likert,User,1,"Was this item previously studied?",PRESENTED,Recog,1::2,5553,YES,18.181818181818,-1,-1,0,0,,1
644125940320fea474c2afd3,j805j873k6,"Mediated Recog Prolific",1,140,2023-05-08T20:35:32+00:00,6.4959700107574,5,versionC_stim.csv,ReadVersion_Recog.csv,"Read Recog",Read3,,MONEY,RECOG,Presented,118,141,Likert,User,1,"Was this item previously studied?",PRESENTED,Recog,1::2,4956,NO,28.571428571429,-1,-1,0,0,,1
644125940320fea474c2afd3,j805j873k6,"Mediated Recog Prolific",1,141,2023-05-08T20:35:35+00:00,2.8082680702209,5,versionC_stim.csv,ReadVersion_Recog.csv,"Read Recog",Read3,,PLANT,RECOG,CONTROL,72,137,Likert,User,1,"Was this item previously studied?",PRESENTED,Recog,1::2,1863,NO,28.571428571429,-1,-1,0,0,,1
644125940320fea474c2afd3,j805j873k6,"Mediated Recog Prolific",1,142,2023-05-08T20:35:37+00:00,2.6097390651703,5,versionC_stim.csv,ReadVersion_Recog.csv,"Read Recog",Read3,,THIGH,RECOG,CONTROL,68,76,Likert,User,1,"Was this item previously studied?",CONTROL,Recog,1::2,1730,YES,0,-1,-1,0,0,,1
644125940320fea474c2afd3,j805j873k6,"Mediated Recog Prolific",1,143,2023-05-08T20:35:43+00:00,5.5717618465424,5,versionC_stim.csv,ReadVersion_Recog.csv,"Read Recog",Read3,,DONKEY,RECOG,Presented,120,61,Likert,User,1,"Was this item previously studied?",CONTROL,Recog,1::2,4289,NO,25,-1,-1,0,0,,1
644125940320fea474c2afd3,j805j873k6,"Mediated Recog Prolific",1,144,2023-05-08T20:35:46+00:00,3.4692652225494,5,versionC_stim.csv,ReadVersion_Recog.csv,"Read Recog",Read3,,COW,RECOG,CONTROL,84,89,Likert,User,1,"Was this item previously studied?",CONTROL,Recog,1::2,2444,NO,40,-1,-1,0,0,,1
644125940320fea474c2afd3,j805j873k6,"Mediated Recog Prolific",1,145,2023-05-08T20:35:48+00:00,2.1431148052216,5,versionC_stim.csv,ReadVersion_Recog.csv,"Read Recog",Read3,,BASEBALL,RECOG,CONTROL,80,140,Likert,User,1,"Was this item previously studied?",PRESENTED,Recog,1::2,1166,YES,18.181818181818,-1,-1,0,0,,1
644125940320fea474c2afd3,j805j873k6,"Mediated Recog Prolific",1,146,2023-05-08T20:35:51+00:00,2.3525071144104,5,versionC_stim.csv,ReadVersion_Recog.csv,"Read Recog",Read3,,CARPET,RECOG,Presented,111,131,Likert,User,1,"Was this item previously studied?",PRESENTED,Recog,1::2,1500,NO,0,-1,-1,0,0,,1
644125940320fea474c2afd3,j805j873k6,"Mediated Recog Prolific",1,147,2023-05-08T20:35:54+00:00,3.5627410411835,5,versionC_stim.csv,ReadVersion_Recog.csv,"Read Recog",Read3,,BIRD,RECOG,Presented,122,57,Likert,User,1,"Was this item previously studied?",CONTROL,Recog,1::2,2623,NO,0,-1,-1,0,0,,1
644125940320fea474c2afd3,j805j873k6,"Mediated Recog Prolific",1,148,2023-05-08T20:35:57+00:00,2.8111438751221,5,versionC_stim.csv,ReadVersion_Recog.csv,"Read Recog",Read3,,FIGHT,RECOG,CONTROL,82,114,Likert,User,1,"Was this item previously studied?",PRESENTED,Recog,1::2,1956,YES,0,-1,-1,0,0,,1
644125940320fea474c2afd3,j805j873k6,"Mediated Recog Prolific",1,149,2023-05-08T20:35:59+00:00,1.6876821517944,5,versionC_stim.csv,ReadVersion_Recog.csv,"Read Recog",Read3,,MORNING,RECOG,Presented,144,77,Likert,User,1,"Was this item previously studied?",CONTROL,Recog,1::2,1218,,,-1,-1,,,,1
644125940320fea474c2afd3,j805j873k6,"Mediated Recog Prolific",1,150,2023-05-08T20:36:02+00:00,2.9351699352264,5,versionC_stim.csv,ReadVersion_Recog.csv,"Read Recog",Read3,,STEAK,RECOG,Presented,134,139,Likert,User,1,"Was this item previously studied?",PRESENTED,Recog,1::2,2036,YES,25,-1,-1,0,0,,1
644125940320fea474c2afd3,j805j873k6,"Mediated Recog Prolific",1,151,2023-05-08T20:36:04+00:00,2.0519549846649,5,versionC_stim.csv,ReadVersion_Recog.csv,"Read Recog",Read3,,,,,,0,Instruct,User,-,"You have completed this section. Please press Enter.",,Instruct7,,853,,,-1,-1,,,,1
644125940320fea474c2afd3,j805j873k6,"Mediated Recog Prolific",1,152,2023-05-08T20:36:07+00:00,3.3021140098572,5,versionC_stim.csv,ReadVersion_Recog.csv,"Read Recog",Read3,,,,,,0,Instruct,User,-,"The following screen will ask you a few questions abour your experience today. You must complete these questions to receive credit.",,Instruct8,,2566,,,-1,-1,,,,1
