Username,ID,ExperimentName,Session,Trial,Date,TimeDif,"Condition Number","Stimuli File","Order File","Condition Description","Condition Notes",Stimuli*Cue,Stimuli*Answer,Stimuli*Shuffle,"Stimuli*Stimuli Notes",Stimuli*Value,Procedure*Item,"Procedure*Trial Type","Procedure*Max Time","Procedure*Min Time",Procedure*Text,"Procedure*Procedure Notes",Procedure*Shuffle,Procedure*,Response*RT,Response*Response,Response*Accuracy,Response*RTfirst,Response*RTlast,Response*strictAcc,Response*lenientAcc,Response*focus,Response*Focus
5b6ffc9399982e000145c789,bm4vow99fk,"Mediated Recog Prolific",1,1,2023-05-08T21:46:21+00:00,6.0190329551697,7,versionD_stim.csv,ReadVersion_Recog.csv,"Read Recog",Read4,,,,,,0,Instruct,-,5,"In this section, you will be presented with a series of word pairs. Please study each word pair! Your memory will be tested!",Initial_Instruct,Instruct1,,5703,,,-1,-1,,,,1
5b6ffc9399982e000145c789,bm4vow99fk,"Mediated Recog Prolific",1,2,2023-05-08T21:46:22+00:00,1.4021890163422,7,versionD_stim.csv,ReadVersion_Recog.csv,"Read Recog",Read4,,,,,,0,Instruct,User,-,"You will now begin. Press Enter when you are ready to begin.",,Instruct16,,1151,,,-1,-1,,,,1
5b6ffc9399982e000145c789,bm4vow99fk,"Mediated Recog Prolific",1,3,2023-05-08T21:46:27+00:00,4.7832770347595,7,versionD_stim.csv,ReadVersion_Recog.csv,"Read Recog",Read4,MONTH,YEAR,BUFFER3,Buffer,2,4,Study,User,-,,Study/JOL,BUFFER,,4532,,,-1,-1,,,,1
5b6ffc9399982e000145c789,bm4vow99fk,"Mediated Recog Prolific",1,4,2023-05-08T21:46:31+00:00,4.2364168167114,7,versionD_stim.csv,ReadVersion_Recog.csv,"Read Recog",Read4,SPRING,MARCH,BUFFER3,Buffer,4,5,Study,User,-,,Study/JOL,BUFFER,,3939,,,-1,-1,,,,1
5b6ffc9399982e000145c789,bm4vow99fk,"Mediated Recog Prolific",1,5,2023-05-08T21:46:35+00:00,4.2116770744324,7,versionD_stim.csv,ReadVersion_Recog.csv,"Read Recog",Read4,DAYS,WEAKS,BUFFER3,Buffer,1,3,Study,User,-,,Study/JOL,BUFFER,,3965,,,-1,-1,,,,1
5b6ffc9399982e000145c789,bm4vow99fk,"Mediated Recog Prolific",1,6,2023-05-08T21:46:38+00:00,2.9413011074066,7,versionD_stim.csv,ReadVersion_Recog.csv,"Read Recog",Read4,OCTOBER,SPOOKY,BUFFER3,Buffer,5,2,Study,User,-,,Study/JOL,BUFFER,,2689,,,-1,-1,,,,1
5b6ffc9399982e000145c789,bm4vow99fk,"Mediated Recog Prolific",1,7,2023-05-08T21:46:43+00:00,4.4345679283142,7,versionD_stim.csv,ReadVersion_Recog.csv,"Read Recog",Read4,TOOL,SHED,BUFFER3,Buffer,3,6,Study,User,-,,Study/JOL,BUFFER,,4185,,,-1,-1,,,,1
5b6ffc9399982e000145c789,bm4vow99fk,"Mediated Recog Prolific",1,8,2023-05-08T21:46:45+00:00,2.1480450630188,7,versionD_stim.csv,ReadVersion_Recog.csv,"Read Recog",Read4,OVEN,BASKET,Study2,M,16,14,Study,User,-,,Study/JOL,"Study Phase",,1900,,,-1,-1,,,,1
5b6ffc9399982e000145c789,bm4vow99fk,"Mediated Recog Prolific",1,9,2023-05-08T21:46:47+00:00,2.2887289524078,7,versionD_stim.csv,ReadVersion_Recog.csv,"Read Recog",Read4,CASH,LEG,Study2,U,50,43,Study,User,-,,Study/JOL,"Study Phase",,2050,,,-1,-1,,,,1
5b6ffc9399982e000145c789,bm4vow99fk,"Mediated Recog Prolific",1,10,2023-05-08T21:46:50+00:00,2.9928250312805,7,versionD_stim.csv,ReadVersion_Recog.csv,"Read Recog",Read4,ARTERY,BRONZE,Study2,U,48,37,Study,User,-,,Study/JOL,"Study Phase",,2749,,,-1,-1,,,,1
5b6ffc9399982e000145c789,bm4vow99fk,"Mediated Recog Prolific",1,11,2023-05-08T21:46:52+00:00,1.4556798934937,7,versionD_stim.csv,ReadVersion_Recog.csv,"Read Recog",Read4,CHOP,CUT,Study2,F,22,46,Study,User,-,,Study/JOL,"Study Phase",,1211,,,-1,-1,,,,1
5b6ffc9399982e000145c789,bm4vow99fk,"Mediated Recog Prolific",1,12,2023-05-08T21:47:08+00:00,16.519443035126,7,versionD_stim.csv,ReadVersion_Recog.csv,"Read Recog",Read4,VALLEY,PEAK,Study2,M,18,28,Study,User,-,,Study/JOL,"Study Phase",,16119,,,-1,-1,,,,0.185
5b6ffc9399982e000145c789,bm4vow99fk,"Mediated Recog Prolific",1,13,2023-05-08T21:47:10+00:00,1.8551380634308,7,versionD_stim.csv,ReadVersion_Recog.csv,"Read Recog",Read4,HORNET,STING,Study2,F,30,42,Study,User,-,,Study/JOL,"Study Phase",,1600,,,-1,-1,,,,1
5b6ffc9399982e000145c789,bm4vow99fk,"Mediated Recog Prolific",1,14,2023-05-08T21:47:11+00:00,1.4937009811401,7,versionD_stim.csv,ReadVersion_Recog.csv,"Read Recog",Read4,MIRROR,CHILDREN,Study2,U,49,25,Study,User,-,,Study/JOL,"Study Phase",,1244,,,-1,-1,,,,1
5b6ffc9399982e000145c789,bm4vow99fk,"Mediated Recog Prolific",1,15,2023-05-08T21:47:13+00:00,1.3651978969574,7,versionD_stim.csv,ReadVersion_Recog.csv,"Read Recog",Read4,NURSE,LAWYER,Study2,M,11,11,Study,User,-,,Study/JOL,"Study Phase",,1112,,,-1,-1,,,,1
5b6ffc9399982e000145c789,bm4vow99fk,"Mediated Recog Prolific",1,16,2023-05-08T21:47:14+00:00,1.4710810184479,7,versionD_stim.csv,ReadVersion_Recog.csv,"Read Recog",Read4,SOAP,DRINK,Study2,M,12,31,Study,User,-,,Study/JOL,"Study Phase",,1229,,,-1,-1,,,,1
5b6ffc9399982e000145c789,bm4vow99fk,"Mediated Recog Prolific",1,17,2023-05-08T21:47:16+00:00,1.7192001342773,7,versionD_stim.csv,ReadVersion_Recog.csv,"Read Recog",Read4,SUGAR,RIDDLE,Study2,U,40,24,Study,User,-,,Study/JOL,"Study Phase",,1476,,,-1,-1,,,,1
5b6ffc9399982e000145c789,bm4vow99fk,"Mediated Recog Prolific",1,18,2023-05-08T21:47:17+00:00,1.4655928611755,7,versionD_stim.csv,ReadVersion_Recog.csv,"Read Recog",Read4,HAPPY,CAR,Study2,U,37,18,Study,User,-,,Study/JOL,"Study Phase",,1217,,,-1,-1,,,,1
5b6ffc9399982e000145c789,bm4vow99fk,"Mediated Recog Prolific",1,19,2023-05-08T21:47:22+00:00,4.1382689476013,7,versionD_stim.csv,ReadVersion_Recog.csv,"Read Recog",Read4,BOTH,OUNCE,Study2,U,47,35,Study,User,-,,Study/JOL,"Study Phase",,3906,,,-1,-1,,,,0.85
5b6ffc9399982e000145c789,bm4vow99fk,"Mediated Recog Prolific",1,20,2023-05-08T21:47:23+00:00,1.7462391853333,7,versionD_stim.csv,ReadVersion_Recog.csv,"Read Recog",Read4,DIETARY,SACK,Study2,U,42,9,Study,User,-,,Study/JOL,"Study Phase",,1502,,,-1,-1,,,,1
5b6ffc9399982e000145c789,bm4vow99fk,"Mediated Recog Prolific",1,21,2023-05-08T21:47:24+00:00,1.1471538543701,7,versionD_stim.csv,ReadVersion_Recog.csv,"Read Recog",Read4,WASP,BUG,Study2,F,34,36,Study,User,-,,Study/JOL,"Study Phase",,903,,,-1,-1,,,,1
5b6ffc9399982e000145c789,bm4vow99fk,"Mediated Recog Prolific",1,22,2023-05-08T21:47:27+00:00,2.5892841815948,7,versionD_stim.csv,ReadVersion_Recog.csv,"Read Recog",Read4,BLAZE,FIRE,Study2,F,26,29,Study,User,-,,Study/JOL,"Study Phase",,2342,,,-1,-1,,,,1
5b6ffc9399982e000145c789,bm4vow99fk,"Mediated Recog Prolific",1,23,2023-05-08T21:47:31+00:00,3.5833158493042,7,versionD_stim.csv,ReadVersion_Recog.csv,"Read Recog",Read4,LEASE,TOIL,Study2,U,46,17,Study,User,-,,Study/JOL,"Study Phase",,3322,,,-1,-1,,,,1
5b6ffc9399982e000145c789,bm4vow99fk,"Mediated Recog Prolific",1,24,2023-05-08T21:47:33+00:00,2.2774510383606,7,versionD_stim.csv,ReadVersion_Recog.csv,"Read Recog",Read4,PUSH,CLUTTER,Study2,U,41,20,Study,User,-,,Study/JOL,"Study Phase",,2040,,,-1,-1,,,,1
5b6ffc9399982e000145c789,bm4vow99fk,"Mediated Recog Prolific",1,25,2023-05-08T21:47:35+00:00,1.8191781044006,7,versionD_stim.csv,ReadVersion_Recog.csv,"Read Recog",Read4,BRIDGE,WATER,Study2,F,35,16,Study,User,-,,Study/JOL,"Study Phase",,1573,,,-1,-1,,,,1
5b6ffc9399982e000145c789,bm4vow99fk,"Mediated Recog Prolific",1,26,2023-05-08T21:47:36+00:00,1.5699808597565,7,versionD_stim.csv,ReadVersion_Recog.csv,"Read Recog",Read4,ATTIRE,CLOTHES,Study2,F,24,45,Study,User,-,,Study/JOL,"Study Phase",,1313,,,-1,-1,,,,1
5b6ffc9399982e000145c789,bm4vow99fk,"Mediated Recog Prolific",1,27,2023-05-08T21:47:38+00:00,1.7133860588074,7,versionD_stim.csv,ReadVersion_Recog.csv,"Read Recog",Read4,PANTS,COLLAR,Study2,M,8,50,Study,User,-,,Study/JOL,"Study Phase",,1465,,,-1,-1,,,,1
5b6ffc9399982e000145c789,bm4vow99fk,"Mediated Recog Prolific",1,28,2023-05-08T21:47:40+00:00,1.9458968639374,7,versionD_stim.csv,ReadVersion_Recog.csv,"Read Recog",Read4,SUMMER,SNOW,Study2,M,6,47,Study,User,-,,Study/JOL,"Study Phase",,1693,,,-1,-1,,,,1
5b6ffc9399982e000145c789,bm4vow99fk,"Mediated Recog Prolific",1,29,2023-05-08T21:47:41+00:00,1.4951231479645,7,versionD_stim.csv,ReadVersion_Recog.csv,"Read Recog",Read4,CHERRY,RED,Study2,F,25,19,Study,User,-,,Study/JOL,"Study Phase",,1252,,,-1,-1,,,,1
5b6ffc9399982e000145c789,bm4vow99fk,"Mediated Recog Prolific",1,30,2023-05-08T21:47:43+00:00,1.4483618736267,7,versionD_stim.csv,ReadVersion_Recog.csv,"Read Recog",Read4,SCHOOL,STOP,Study2,M,7,44,Study,User,-,,Study/JOL,"Study Phase",,1204,,,-1,-1,,,,1
5b6ffc9399982e000145c789,bm4vow99fk,"Mediated Recog Prolific",1,31,2023-05-08T21:47:44+00:00,1.2408730983734,7,versionD_stim.csv,ReadVersion_Recog.csv,"Read Recog",Read4,INCENSE,SMELL,Study2,F,28,7,Study,User,-,,Study/JOL,"Study Phase",,1003,,,-1,-1,,,,1
5b6ffc9399982e000145c789,bm4vow99fk,"Mediated Recog Prolific",1,32,2023-05-08T21:47:47+00:00,2.7936999797821,7,versionD_stim.csv,ReadVersion_Recog.csv,"Read Recog",Read4,RAKE,SEED,Study2,M,14,22,Study,User,-,,Study/JOL,"Study Phase",,2550,,,-1,-1,,,,1
5b6ffc9399982e000145c789,bm4vow99fk,"Mediated Recog Prolific",1,33,2023-05-08T21:47:49+00:00,1.5947380065918,7,versionD_stim.csv,ReadVersion_Recog.csv,"Read Recog",Read4,GRILL,THIGH,Study2,M,17,23,Study,User,-,,Study/JOL,"Study Phase",,1360,,,-1,-1,,,,1
5b6ffc9399982e000145c789,bm4vow99fk,"Mediated Recog Prolific",1,34,2023-05-08T21:47:50+00:00,1.0131089687347,7,versionD_stim.csv,ReadVersion_Recog.csv,"Read Recog",Read4,DOCUMENT,PAPER,Study2,F,27,15,Study,User,-,,Study/JOL,"Study Phase",,766,,,-1,-1,,,,1
5b6ffc9399982e000145c789,bm4vow99fk,"Mediated Recog Prolific",1,35,2023-05-08T21:47:51+00:00,1.3329310417175,7,versionD_stim.csv,ReadVersion_Recog.csv,"Read Recog",Read4,TRAP,CAVE,Study2,M,15,48,Study,User,-,,Study/JOL,"Study Phase",,1092,,,-1,-1,,,,1
5b6ffc9399982e000145c789,bm4vow99fk,"Mediated Recog Prolific",1,36,2023-05-08T21:47:52+00:00,1.2381908893585,7,versionD_stim.csv,ReadVersion_Recog.csv,"Read Recog",Read4,HEAVY,FEATHER,Study2,M,13,8,Study,User,-,,Study/JOL,"Study Phase",,988,,,-1,-1,,,,1
5b6ffc9399982e000145c789,bm4vow99fk,"Mediated Recog Prolific",1,37,2023-05-08T21:47:54+00:00,2.1170082092285,7,versionD_stim.csv,ReadVersion_Recog.csv,"Read Recog",Read4,KING,VASE,Study2,U,36,38,Study,User,-,,Study/JOL,"Study Phase",,1872,,,-1,-1,,,,1
5b6ffc9399982e000145c789,bm4vow99fk,"Mediated Recog Prolific",1,38,2023-05-08T21:47:56+00:00,1.6917560100555,7,versionD_stim.csv,ReadVersion_Recog.csv,"Read Recog",Read4,DEATH,BUSINESS,Study2,U,44,40,Study,User,-,,Study/JOL,"Study Phase",,1442,,,-1,-1,,,,1
5b6ffc9399982e000145c789,bm4vow99fk,"Mediated Recog Prolific",1,39,2023-05-08T21:47:59+00:00,2.757661819458,7,versionD_stim.csv,ReadVersion_Recog.csv,"Read Recog",Read4,STRONG,ACCIDENT,Study2,U,39,26,Study,User,-,,Study/JOL,"Study Phase",,2520,,,-1,-1,,,,1
5b6ffc9399982e000145c789,bm4vow99fk,"Mediated Recog Prolific",1,40,2023-05-08T21:48:00+00:00,1.2605860233307,7,versionD_stim.csv,ReadVersion_Recog.csv,"Read Recog",Read4,CACTUS,PLANT,Study2,F,21,33,Study,User,-,,Study/JOL,"Study Phase",,998,,,-1,-1,,,,1
5b6ffc9399982e000145c789,bm4vow99fk,"Mediated Recog Prolific",1,41,2023-05-08T21:48:01+00:00,1.344710111618,7,versionD_stim.csv,ReadVersion_Recog.csv,"Read Recog",Read4,CHILL,COLD,Study2,F,32,41,Study,User,-,,Study/JOL,"Study Phase",,1094,,,-1,-1,,,,1
5b6ffc9399982e000145c789,bm4vow99fk,"Mediated Recog Prolific",1,42,2023-05-08T21:48:04+00:00,2.2360529899597,7,versionD_stim.csv,ReadVersion_Recog.csv,"Read Recog",Read4,CHISEL,HAMMER,Study2,F,23,49,Study,User,-,,Study/JOL,"Study Phase",,1996,,,-1,-1,,,,1
5b6ffc9399982e000145c789,bm4vow99fk,"Mediated Recog Prolific",1,43,2023-05-08T21:48:05+00:00,1.2169358730316,7,versionD_stim.csv,ReadVersion_Recog.csv,"Read Recog",Read4,LEAGUE,BASEBALL,Study2,F,29,51,Study,User,-,,Study/JOL,"Study Phase",,970,,,-1,-1,,,,1
5b6ffc9399982e000145c789,bm4vow99fk,"Mediated Recog Prolific",1,44,2023-05-08T21:48:06+00:00,1.2870349884033,7,versionD_stim.csv,ReadVersion_Recog.csv,"Read Recog",Read4,HERD,COW,Study2,F,33,27,Study,User,-,,Study/JOL,"Study Phase",,1033,,,-1,-1,,,,1
5b6ffc9399982e000145c789,bm4vow99fk,"Mediated Recog Prolific",1,45,2023-05-08T21:48:08+00:00,2.257758140564,7,versionD_stim.csv,ReadVersion_Recog.csv,"Read Recog",Read4,FEUD,FIGHT,Study2,F,31,34,Study,User,-,,Study/JOL,"Study Phase",,2016,,,-1,-1,,,,1
5b6ffc9399982e000145c789,bm4vow99fk,"Mediated Recog Prolific",1,46,2023-05-08T21:48:10+00:00,1.6500408649445,7,versionD_stim.csv,ReadVersion_Recog.csv,"Read Recog",Read4,WINDOW,KNOB,Study2,M,19,13,Study,User,-,,Study/JOL,"Study Phase",,1411,,,-1,-1,,,,1
5b6ffc9399982e000145c789,bm4vow99fk,"Mediated Recog Prolific",1,47,2023-05-08T21:48:12+00:00,1.997976064682,7,versionD_stim.csv,ReadVersion_Recog.csv,"Read Recog",Read4,SICK,HIDE,Study2,U,45,21,Study,User,-,,Study/JOL,"Study Phase",,1749,,,-1,-1,,,,1
5b6ffc9399982e000145c789,bm4vow99fk,"Mediated Recog Prolific",1,48,2023-05-08T21:48:15+00:00,3.2568190097809,7,versionD_stim.csv,ReadVersion_Recog.csv,"Read Recog",Read4,RAZOR,MUSCLE,Study2,M,20,32,Study,User,-,,Study/JOL,"Study Phase",,3013,,,-1,-1,,,,1
5b6ffc9399982e000145c789,bm4vow99fk,"Mediated Recog Prolific",1,49,2023-05-08T21:48:16+00:00,1.2512888908386,7,versionD_stim.csv,ReadVersion_Recog.csv,"Read Recog",Read4,ART,WOLF,Study2,U,38,10,Study,User,-,,Study/JOL,"Study Phase",,1002,,,-1,-1,,,,1
5b6ffc9399982e000145c789,bm4vow99fk,"Mediated Recog Prolific",1,50,2023-05-08T21:48:18+00:00,1.707414150238,7,versionD_stim.csv,ReadVersion_Recog.csv,"Read Recog",Read4,REALITY,ISLAND,Study2,M,9,30,Study,User,-,,Study/JOL,"Study Phase",,1460,,,-1,-1,,,,1
5b6ffc9399982e000145c789,bm4vow99fk,"Mediated Recog Prolific",1,51,2023-05-08T21:48:20+00:00,1.4839379787445,7,versionD_stim.csv,ReadVersion_Recog.csv,"Read Recog",Read4,BENCH,HORN,Study2,U,43,39,Study,User,-,,Study/JOL,"Study Phase",,1244,,,-1,-1,,,,1
5b6ffc9399982e000145c789,bm4vow99fk,"Mediated Recog Prolific",1,52,2023-05-08T21:48:22+00:00,1.8772959709167,7,versionD_stim.csv,ReadVersion_Recog.csv,"Read Recog",Read4,EYES,SMELL,Study2,M,10,12,Study,User,-,,Study/JOL,"Study Phase",,1631,,,-1,-1,,,,1
5b6ffc9399982e000145c789,bm4vow99fk,"Mediated Recog Prolific",1,53,2023-05-08T21:48:23+00:00,1.4018220901489,7,versionD_stim.csv,ReadVersion_Recog.csv,"Read Recog",Read4,SHRIMP,FISH,BUFFER4,Buffer,53,54,Study,User,-,,Study/JOL,BUFFER2,,1149,,,-1,-1,,,,1
5b6ffc9399982e000145c789,bm4vow99fk,"Mediated Recog Prolific",1,54,2023-05-08T21:48:24+00:00,1.3058879375458,7,versionD_stim.csv,ReadVersion_Recog.csv,"Read Recog",Read4,ICE,FROZEN,BUFFER4,Buffer,54,56,Study,User,-,,Study/JOL,BUFFER2,,1058,,,-1,-1,,,,1
5b6ffc9399982e000145c789,bm4vow99fk,"Mediated Recog Prolific",1,55,2023-05-08T21:48:25+00:00,1.2678298950195,7,versionD_stim.csv,ReadVersion_Recog.csv,"Read Recog",Read4,NOODLE,STRING,BUFFER4,Buffer,52,55,Study,User,-,,Study/JOL,BUFFER2,,1015,,,-1,-1,,,,1
5b6ffc9399982e000145c789,bm4vow99fk,"Mediated Recog Prolific",1,56,2023-05-08T21:48:27+00:00,1.1851670742035,7,versionD_stim.csv,ReadVersion_Recog.csv,"Read Recog",Read4,CARROT,POTATO,BUFFER4,Buffer,51,53,Study,User,-,,Study/JOL,BUFFER2,,930,,,-1,-1,,,,1
5b6ffc9399982e000145c789,bm4vow99fk,"Mediated Recog Prolific",1,57,2023-05-08T21:48:28+00:00,0.96231198310852,7,versionD_stim.csv,ReadVersion_Recog.csv,"Read Recog",Read4,CAMP,ADVENTURE,BUFFER4,Buffer,55,52,Study,User,-,,Study/JOL,BUFFER2,,715,,,-1,-1,,,,1
5b6ffc9399982e000145c789,bm4vow99fk,"Mediated Recog Prolific",1,58,2023-05-08T21:48:43+00:00,15.505132913589,7,versionD_stim.csv,ReadVersion_Recog.csv,"Read Recog",Read4,,,,,,0,Instruct,User,-,"You have completed this section. Please press Enter.",Filler_Instruction,Instruct2,,14774,,,-1,-1,,,,0.243
5b6ffc9399982e000145c789,bm4vow99fk,"Mediated Recog Prolific",1,59,2023-05-08T21:50:44+00:00,120.5139811039,7,versionD_stim.csv,ReadVersion_Recog.csv,"Read Recog",Read4,,,,,,0,FreeRecall,120,120,"Please list the 50 US states in alphabetical order. The task will automatically advance to the next screen after two minutes.",,Filler1,,120004,"Alabama, California, Delaware, Georgia, Idaho, Iowa, Kentucky, louisiana, missouri, Nevada, north dakota, Oregon, ohio, pennsylvania, Utah, Washington,",0,14864,114775,0,0,,0.956
5b6ffc9399982e000145c789,bm4vow99fk,"Mediated Recog Prolific",1,60,2023-05-08T21:51:26+00:00,42.746187925339,7,versionD_stim.csv,ReadVersion_Recog.csv,"Read Recog",Read4,,,,,,0,Instruct,User,10,"Your memory will now be tested. You will be presented with a series of words that may or may not have been previously presented alongside another word. If the word on the screen was previously studied, please select YES. If the word was not studied, select NO. PLEASE DO NOT SKIP ITEMS! Click next when you are ready to begin.",,Instruc7982154d,,42341,,,-1,-1,,,,0.288
5b6ffc9399982e000145c789,bm4vow99fk,"Mediated Recog Prolific",1,61,2023-05-08T21:51:31+00:00,5.1071121692657,7,versionD_stim.csv,ReadVersion_Recog.csv,"Read Recog",Read4,,COTTON,RECOG,Control,75,60,Likert,User,1,"Was this item previously studied?",CONTROL,Recog,1::2,4850,NO,25,-1,-1,0,0,,1
5b6ffc9399982e000145c789,bm4vow99fk,"Mediated Recog Prolific",1,62,2023-05-08T21:51:34+00:00,2.3820719718933,7,versionD_stim.csv,ReadVersion_Recog.csv,"Read Recog",Read4,,SMELL,RECOG,Presented,128,146,Likert,User,1,"Was this item previously studied?",PRESENTED,Recog,1::2,2141,YES,25,-1,-1,0,0,,1
5b6ffc9399982e000145c789,bm4vow99fk,"Mediated Recog Prolific",1,63,2023-05-08T21:51:36+00:00,1.8155589103699,7,versionD_stim.csv,ReadVersion_Recog.csv,"Read Recog",Read4,,VASE,RECOG,Presented,136,129,Likert,User,1,"Was this item previously studied?",PRESENTED,Recog,1::2,1575,YES,28.571428571429,-1,-1,0,0,,1
5b6ffc9399982e000145c789,bm4vow99fk,"Mediated Recog Prolific",1,64,2023-05-08T21:51:38+00:00,2.4229879379272,7,versionD_stim.csv,ReadVersion_Recog.csv,"Read Recog",Read4,,CLEAN,RECOG,Control,83,95,Likert,User,1,"Was this item previously studied?",CONTROL,Recog,1::2,2172,YES,25,-1,-1,0,0,,1
5b6ffc9399982e000145c789,bm4vow99fk,"Mediated Recog Prolific",1,65,2023-05-08T21:51:40+00:00,2.1540861129761,7,versionD_stim.csv,ReadVersion_Recog.csv,"Read Recog",Read4,,HAMMER,RECOG,Presented,123,112,Likert,User,1,"Was this item previously studied?",PRESENTED,Recog,1::2,1906,YES,22.222222222222,-1,-1,0,0,,1
5b6ffc9399982e000145c789,bm4vow99fk,"Mediated Recog Prolific",1,66,2023-05-08T21:51:42+00:00,1.8730549812317,7,versionD_stim.csv,ReadVersion_Recog.csv,"Read Recog",Read4,,SYRUP,RECOG,Control,66,144,Likert,User,1,"Was this item previously studied?",PRESENTED,Recog,1::2,1629,NO,0,-1,-1,0,0,,1
5b6ffc9399982e000145c789,bm4vow99fk,"Mediated Recog Prolific",1,67,2023-05-08T21:51:44+00:00,1.8181490898132,7,versionD_stim.csv,ReadVersion_Recog.csv,"Read Recog",Read4,,MAROON,RECOG,Control,91,62,Likert,User,1,"Was this item previously studied?",CONTROL,Recog,1::2,1564,NO,25,-1,-1,0,0,,1
5b6ffc9399982e000145c789,bm4vow99fk,"Mediated Recog Prolific",1,68,2023-05-08T21:51:46+00:00,2.1935620307922,7,versionD_stim.csv,ReadVersion_Recog.csv,"Read Recog",Read4,,PEAK,RECOG,Presented,118,104,Likert,User,1,"Was this item previously studied?",PRESENTED,Recog,1::2,1954,YES,28.571428571429,-1,-1,0,0,,1
5b6ffc9399982e000145c789,bm4vow99fk,"Mediated Recog Prolific",1,69,2023-05-08T21:51:48+00:00,1.8685739040375,7,versionD_stim.csv,ReadVersion_Recog.csv,"Read Recog",Read4,,DONKEY,RECOG,Control,85,70,Likert,User,1,"Was this item previously studied?",CONTROL,Recog,1::2,1628,NO,25,-1,-1,0,0,,1
5b6ffc9399982e000145c789,bm4vow99fk,"Mediated Recog Prolific",1,70,2023-05-08T21:51:50+00:00,1.6954960823059,7,versionD_stim.csv,ReadVersion_Recog.csv,"Read Recog",Read4,,QUIET,RECOG,Control,63,90,Likert,User,1,"Was this item previously studied?",CONTROL,Recog,1::2,1441,NO,0,-1,-1,0,0,,1
5b6ffc9399982e000145c789,bm4vow99fk,"Mediated Recog Prolific",1,71,2023-05-08T21:51:52+00:00,1.8529357910156,7,versionD_stim.csv,ReadVersion_Recog.csv,"Read Recog",Read4,,PLANT,RECOG,Control,80,134,Likert,User,1,"Was this item previously studied?",PRESENTED,Recog,1::2,1610,YES,0,-1,-1,0,0,,1
5b6ffc9399982e000145c789,bm4vow99fk,"Mediated Recog Prolific",1,72,2023-05-08T21:52:03+00:00,11.811281204224,7,versionD_stim.csv,ReadVersion_Recog.csv,"Read Recog",Read4,,LOVE,RECOG,Control,86,124,Likert,User,1,"Was this item previously studied?",PRESENTED,Recog,1::2,11423,NO,33.333333333333,-1,-1,0,0,,0.614
5b6ffc9399982e000145c789,bm4vow99fk,"Mediated Recog Prolific",1,73,2023-05-08T21:52:05+00:00,2.0473418235779,7,versionD_stim.csv,ReadVersion_Recog.csv,"Read Recog",Read4,,PHONE,RECOG,Control,97,103,Likert,User,1,"Was this item previously studied?",PRESENTED,Recog,1::2,1796,NO,28.571428571429,-1,-1,0,0,,1
5b6ffc9399982e000145c789,bm4vow99fk,"Mediated Recog Prolific",1,74,2023-05-08T21:52:07+00:00,1.9181849956512,7,versionD_stim.csv,ReadVersion_Recog.csv,"Read Recog",Read4,,FEATHER,RECOG,Presented,113,105,Likert,User,1,"Was this item previously studied?",PRESENTED,Recog,1::2,1670,YES,20,-1,-1,0,0,,1
5b6ffc9399982e000145c789,bm4vow99fk,"Mediated Recog Prolific",1,75,2023-05-08T21:52:09+00:00,2.0361411571503,7,versionD_stim.csv,ReadVersion_Recog.csv,"Read Recog",Read4,,CARPET,RECOG,Control,70,114,Likert,User,1,"Was this item previously studied?",PRESENTED,Recog,1::2,1792,YES,22.222222222222,-1,-1,0,0,,1
5b6ffc9399982e000145c789,bm4vow99fk,"Mediated Recog Prolific",1,76,2023-05-08T21:52:11+00:00,1.9812698364258,7,versionD_stim.csv,ReadVersion_Recog.csv,"Read Recog",Read4,,STING,RECOG,Presented,130,98,Likert,User,1,"Was this item previously studied?",CONTROL,Recog,1::2,1733,YES,25,-1,-1,0,0,,1
5b6ffc9399982e000145c789,bm4vow99fk,"Mediated Recog Prolific",1,77,2023-05-08T21:52:13+00:00,1.8762900829315,7,versionD_stim.csv,ReadVersion_Recog.csv,"Read Recog",Read4,,CARD,RECOG,Control,88,141,Likert,User,1,"Was this item previously studied?",PRESENTED,Recog,1::2,1633,NO,0,-1,-1,0,0,,1
5b6ffc9399982e000145c789,bm4vow99fk,"Mediated Recog Prolific",1,78,2023-05-08T21:52:21+00:00,7.676922082901,7,versionD_stim.csv,ReadVersion_Recog.csv,"Read Recog",Read4,,DRINK,RECOG,Presented,112,130,Likert,User,1,"Was this item previously studied?",PRESENTED,Recog,1::2,7278,YES,0,-1,-1,0,0,,0.405
5b6ffc9399982e000145c789,bm4vow99fk,"Mediated Recog Prolific",1,79,2023-05-08T21:52:23+00:00,1.8262898921967,7,versionD_stim.csv,ReadVersion_Recog.csv,"Read Recog",Read4,,BASKET,RECOG,Presented,116,63,Likert,User,1,"Was this item previously studied?",CONTROL,Recog,1::2,1576,YES,22.222222222222,-1,-1,0,0,,1
5b6ffc9399982e000145c789,bm4vow99fk,"Mediated Recog Prolific",1,80,2023-05-08T21:52:25+00:00,2.0918440818787,7,versionD_stim.csv,ReadVersion_Recog.csv,"Read Recog",Read4,,DARK,RECOG,Control,73,137,Likert,User,1,"Was this item previously studied?",PRESENTED,Recog,1::2,1833,NO,0,-1,-1,0,0,,1
5b6ffc9399982e000145c789,bm4vow99fk,"Mediated Recog Prolific",1,81,2023-05-08T21:52:26+00:00,1.6525728702545,7,versionD_stim.csv,ReadVersion_Recog.csv,"Read Recog",Read4,,DRINK,RECOG,Control,87,122,Likert,User,1,"Was this item previously studied?",PRESENTED,Recog,1::2,1414,YES,0,-1,-1,0,0,,1
5b6ffc9399982e000145c789,bm4vow99fk,"Mediated Recog Prolific",1,82,2023-05-08T21:52:29+00:00,2.2665510177612,7,versionD_stim.csv,ReadVersion_Recog.csv,"Read Recog",Read4,,ISLAND,RECOG,Presented,109,76,Likert,User,1,"Was this item previously studied?",CONTROL,Recog,1::2,2024,NO,25,-1,-1,0,0,,1
5b6ffc9399982e000145c789,bm4vow99fk,"Mediated Recog Prolific",1,83,2023-05-08T21:52:32+00:00,3.2451131343842,7,versionD_stim.csv,ReadVersion_Recog.csv,"Read Recog",Read4,,BANG,RECOG,Control,105,117,Likert,User,1,"Was this item previously studied?",PRESENTED,Recog,1::2,2990,NO,33.333333333333,-1,-1,0,0,,1
5b6ffc9399982e000145c789,bm4vow99fk,"Mediated Recog Prolific",1,84,2023-05-08T21:52:34+00:00,1.9985368251801,7,versionD_stim.csv,ReadVersion_Recog.csv,"Read Recog",Read4,,CLOTHES,RECOG,Presented,124,101,Likert,User,1,"Was this item previously studied?",CONTROL,Recog,1::2,1753,YES,40,-1,-1,0,0,,1
5b6ffc9399982e000145c789,bm4vow99fk,"Mediated Recog Prolific",1,85,2023-05-08T21:52:36+00:00,1.5073230266571,7,versionD_stim.csv,ReadVersion_Recog.csv,"Read Recog",Read4,,SEED,RECOG,Presented,114,145,Likert,User,1,"Was this item previously studied?",PRESENTED,Recog,1::2,1268,YES,28.571428571429,-1,-1,0,0,,1
5b6ffc9399982e000145c789,bm4vow99fk,"Mediated Recog Prolific",1,86,2023-05-08T21:52:38+00:00,2.1658179759979,7,versionD_stim.csv,ReadVersion_Recog.csv,"Read Recog",Read4,,HEAD,RECOG,Control,78,127,Likert,User,1,"Was this item previously studied?",PRESENTED,Recog,1::2,1912,NO,0,-1,-1,0,0,,1
5b6ffc9399982e000145c789,bm4vow99fk,"Mediated Recog Prolific",1,87,2023-05-08T21:52:39+00:00,1.6378371715546,7,versionD_stim.csv,ReadVersion_Recog.csv,"Read Recog",Read4,,WOLF,RECOG,Presented,138,80,Likert,User,1,"Was this item previously studied?",CONTROL,Recog,1::2,1397,YES,0,-1,-1,0,0,,1
5b6ffc9399982e000145c789,bm4vow99fk,"Mediated Recog Prolific",1,88,2023-05-08T21:52:41+00:00,1.5877079963684,7,versionD_stim.csv,ReadVersion_Recog.csv,"Read Recog",Read4,,SMELL,RECOG,Presented,110,108,Likert,User,1,"Was this item previously studied?",PRESENTED,Recog,1::2,1342,YES,25,-1,-1,0,0,,1
5b6ffc9399982e000145c789,bm4vow99fk,"Mediated Recog Prolific",1,89,2023-05-08T21:52:42+00:00,1.4368889331818,7,versionD_stim.csv,ReadVersion_Recog.csv,"Read Recog",Read4,,BASEBALL,RECOG,Presented,129,74,Likert,User,1,"Was this item previously studied?",CONTROL,Recog,1::2,1184,NO,0,-1,-1,0,0,,1
5b6ffc9399982e000145c789,bm4vow99fk,"Mediated Recog Prolific",1,90,2023-05-08T21:52:45+00:00,2.2599461078644,7,versionD_stim.csv,ReadVersion_Recog.csv,"Read Recog",Read4,,MONEY,RECOG,Control,77,138,Likert,User,1,"Was this item previously studied?",PRESENTED,Recog,1::2,2013,NO,28.571428571429,-1,-1,0,0,,1
5b6ffc9399982e000145c789,bm4vow99fk,"Mediated Recog Prolific",1,91,2023-05-08T21:52:46+00:00,1.6070849895477,7,versionD_stim.csv,ReadVersion_Recog.csv,"Read Recog",Read4,,SHAKE,RECOG,Control,98,102,Likert,User,1,"Was this item previously studied?",PRESENTED,Recog,1::2,1365,NO,0,-1,-1,0,0,,1
5b6ffc9399982e000145c789,bm4vow99fk,"Mediated Recog Prolific",1,92,2023-05-08T21:52:48+00:00,1.9097118377686,7,versionD_stim.csv,ReadVersion_Recog.csv,"Read Recog",Read4,,MORNING,RECOG,Control,103,110,Likert,User,1,"Was this item previously studied?",PRESENTED,Recog,1::2,1654,NO,22.222222222222,-1,-1,0,0,,1
5b6ffc9399982e000145c789,bm4vow99fk,"Mediated Recog Prolific",1,93,2023-05-08T21:52:50+00:00,1.905925989151,7,versionD_stim.csv,ReadVersion_Recog.csv,"Read Recog",Read4,,RED,RECOG,Presented,125,119,Likert,User,1,"Was this item previously studied?",PRESENTED,Recog,1::2,1659,YES,33.333333333333,-1,-1,0,0,,1
5b6ffc9399982e000145c789,bm4vow99fk,"Mediated Recog Prolific",1,94,2023-05-08T21:52:52+00:00,1.9585971832275,7,versionD_stim.csv,ReadVersion_Recog.csv,"Read Recog",Read4,,FISH,RECOG,Control,90,136,Likert,User,1,"Was this item previously studied?",PRESENTED,Recog,1::2,1712,YES,28.571428571429,-1,-1,0,0,,1
5b6ffc9399982e000145c789,bm4vow99fk,"Mediated Recog Prolific",1,95,2023-05-08T21:52:54+00:00,1.7151799201965,7,versionD_stim.csv,ReadVersion_Recog.csv,"Read Recog",Read4,,HAIR,RECOG,Control,74,71,Likert,User,1,"Was this item previously studied?",CONTROL,Recog,1::2,1482,NO,0,-1,-1,0,0,,1
5b6ffc9399982e000145c789,bm4vow99fk,"Mediated Recog Prolific",1,96,2023-05-08T21:52:57+00:00,2.8693799972534,7,versionD_stim.csv,ReadVersion_Recog.csv,"Read Recog",Read4,,FLOWER,RECOG,Control,89,123,Likert,User,1,"Was this item previously studied?",PRESENTED,Recog,1::2,2623,NO,25,-1,-1,0,0,,1
5b6ffc9399982e000145c789,bm4vow99fk,"Mediated Recog Prolific",1,97,2023-05-08T21:52:58+00:00,1.544331073761,7,versionD_stim.csv,ReadVersion_Recog.csv,"Read Recog",Read4,,LEG,RECOG,Presented,150,82,Likert,User,1,"Was this item previously studied?",CONTROL,Recog,1::2,1310,YES,33.333333333333,-1,-1,0,0,,1
5b6ffc9399982e000145c789,bm4vow99fk,"Mediated Recog Prolific",1,98,2023-05-08T21:53:00+00:00,1.9260129928589,7,versionD_stim.csv,ReadVersion_Recog.csv,"Read Recog",Read4,,CHILDREN,RECOG,Presented,149,96,Likert,User,1,"Was this item previously studied?",CONTROL,Recog,1::2,1682,NO,20,-1,-1,0,0,,1
5b6ffc9399982e000145c789,bm4vow99fk,"Mediated Recog Prolific",1,99,2023-05-08T21:53:02+00:00,1.8905308246613,7,versionD_stim.csv,ReadVersion_Recog.csv,"Read Recog",Read4,,BOTTLE,RECOG,Control,71,126,Likert,User,1,"Was this item previously studied?",PRESENTED,Recog,1::2,1634,NO,25,-1,-1,0,0,,1
5b6ffc9399982e000145c789,bm4vow99fk,"Mediated Recog Prolific",1,100,2023-05-08T21:53:04+00:00,1.6481530666351,7,versionD_stim.csv,ReadVersion_Recog.csv,"Read Recog",Read4,,WATER,RECOG,Presented,135,86,Likert,User,1,"Was this item previously studied?",CONTROL,Recog,1::2,1401,NO,0,-1,-1,0,0,,1
5b6ffc9399982e000145c789,bm4vow99fk,"Mediated Recog Prolific",1,101,2023-05-08T21:53:06+00:00,1.9340879917145,7,versionD_stim.csv,ReadVersion_Recog.csv,"Read Recog",Read4,,OUNCE,RECOG,Presented,147,79,Likert,User,1,"Was this item previously studied?",CONTROL,Recog,1::2,1690,YES,25,-1,-1,0,0,,1
5b6ffc9399982e000145c789,bm4vow99fk,"Mediated Recog Prolific",1,102,2023-05-08T21:53:07+00:00,1.5062570571899,7,versionD_stim.csv,ReadVersion_Recog.csv,"Read Recog",Read4,,COLD,RECOG,Presented,132,58,Likert,User,1,"Was this item previously studied?",CONTROL,Recog,1::2,1260,YES,0,-1,-1,0,0,,1
5b6ffc9399982e000145c789,bm4vow99fk,"Mediated Recog Prolific",1,103,2023-05-08T21:53:09+00:00,1.4934589862823,7,versionD_stim.csv,ReadVersion_Recog.csv,"Read Recog",Read4,,TOIL,RECOG,Presented,146,97,Likert,User,1,"Was this item previously studied?",CONTROL,Recog,1::2,1252,YES,0,-1,-1,0,0,,1
5b6ffc9399982e000145c789,bm4vow99fk,"Mediated Recog Prolific",1,104,2023-05-08T21:53:10+00:00,1.5169789791107,7,versionD_stim.csv,ReadVersion_Recog.csv,"Read Recog",Read4,,BOX,RECOG,Control,62,133,Likert,User,1,"Was this item previously studied?",PRESENTED,Recog,1::2,1269,NO,40,-1,-1,0,0,,1
5b6ffc9399982e000145c789,bm4vow99fk,"Mediated Recog Prolific",1,105,2023-05-08T21:53:12+00:00,1.5616939067841,7,versionD_stim.csv,ReadVersion_Recog.csv,"Read Recog",Read4,,BOUNCE,RECOG,Control,67,132,Likert,User,1,"Was this item previously studied?",PRESENTED,Recog,1::2,1312,NO,25,-1,-1,0,0,,1
5b6ffc9399982e000145c789,bm4vow99fk,"Mediated Recog Prolific",1,106,2023-05-08T21:53:13+00:00,1.5761771202087,7,versionD_stim.csv,ReadVersion_Recog.csv,"Read Recog",Read4,,PIE,RECOG,Control,64,73,Likert,User,1,"Was this item previously studied?",CONTROL,Recog,1::2,1336,NO,0,-1,-1,0,0,,1
5b6ffc9399982e000145c789,bm4vow99fk,"Mediated Recog Prolific",1,107,2023-05-08T21:53:15+00:00,1.5892839431763,7,versionD_stim.csv,ReadVersion_Recog.csv,"Read Recog",Read4,,COW,RECOG,Presented,133,66,Likert,User,1,"Was this item previously studied?",CONTROL,Recog,1::2,1337,NO,40,-1,-1,0,0,,1
5b6ffc9399982e000145c789,bm4vow99fk,"Mediated Recog Prolific",1,108,2023-05-08T21:53:16+00:00,1.3701550960541,7,versionD_stim.csv,ReadVersion_Recog.csv,"Read Recog",Read4,,THIGH,RECOG,Presented,117,131,Likert,User,1,"Was this item previously studied?",PRESENTED,Recog,1::2,1129,YES,0,-1,-1,0,0,,1
5b6ffc9399982e000145c789,bm4vow99fk,"Mediated Recog Prolific",1,109,2023-05-08T21:53:18+00:00,1.5607490539551,7,versionD_stim.csv,ReadVersion_Recog.csv,"Read Recog",Read4,,STRIPES,RECOG,Control,61,120,Likert,User,1,"Was this item previously studied?",PRESENTED,Recog,1::2,1316,NO,0,-1,-1,0,0,,1
5b6ffc9399982e000145c789,bm4vow99fk,"Mediated Recog Prolific",1,110,2023-05-08T21:53:20+00:00,1.8461649417877,7,versionD_stim.csv,ReadVersion_Recog.csv,"Read Recog",Read4,,BUG,RECOG,Presented,134,140,Likert,User,1,"Was this item previously studied?",PRESENTED,Recog,1::2,1602,YES,0,-1,-1,0,0,,1
5b6ffc9399982e000145c789,bm4vow99fk,"Mediated Recog Prolific",1,111,2023-05-08T21:53:21+00:00,1.4796650409698,7,versionD_stim.csv,ReadVersion_Recog.csv,"Read Recog",Read4,,CHARM,RECOG,Control,95,92,Likert,User,1,"Was this item previously studied?",CONTROL,Recog,1::2,1228,NO,0,-1,-1,0,0,,1
5b6ffc9399982e000145c789,bm4vow99fk,"Mediated Recog Prolific",1,112,2023-05-08T21:53:23+00:00,1.5996558666229,7,versionD_stim.csv,ReadVersion_Recog.csv,"Read Recog",Read4,,STEAK,RECOG,Control,93,67,Likert,User,1,"Was this item previously studied?",CONTROL,Recog,1::2,1341,NO,0,-1,-1,0,0,,1
5b6ffc9399982e000145c789,bm4vow99fk,"Mediated Recog Prolific",1,113,2023-05-08T21:53:24+00:00,1.7919449806213,7,versionD_stim.csv,ReadVersion_Recog.csv,"Read Recog",Read4,,KEYS,RECOG,Control,96,139,Likert,User,1,"Was this item previously studied?",PRESENTED,Recog,1::2,1546,NO,0,-1,-1,0,0,,1
5b6ffc9399982e000145c789,bm4vow99fk,"Mediated Recog Prolific",1,114,2023-05-08T21:53:26+00:00,1.8420021533966,7,versionD_stim.csv,ReadVersion_Recog.csv,"Read Recog",Read4,,PAPER,RECOG,Presented,127,118,Likert,User,1,"Was this item previously studied?",PRESENTED,Recog,1::2,1593,YES,25,-1,-1,0,0,,1
5b6ffc9399982e000145c789,bm4vow99fk,"Mediated Recog Prolific",1,115,2023-05-08T21:53:28+00:00,1.6442120075226,7,versionD_stim.csv,ReadVersion_Recog.csv,"Read Recog",Read4,,CLOTH,RECOG,Control,92,142,Likert,User,1,"Was this item previously studied?",PRESENTED,Recog,1::2,1407,NO,28.571428571429,-1,-1,0,0,,1
5b6ffc9399982e000145c789,bm4vow99fk,"Mediated Recog Prolific",1,116,2023-05-08T21:53:30+00:00,1.6192338466644,7,versionD_stim.csv,ReadVersion_Recog.csv,"Read Recog",Read4,,BRONZE,RECOG,Presented,148,85,Likert,User,1,"Was this item previously studied?",CONTROL,Recog,1::2,1374,YES,22.222222222222,-1,-1,0,0,,1
5b6ffc9399982e000145c789,bm4vow99fk,"Mediated Recog Prolific",1,117,2023-05-08T21:53:31+00:00,1.4496140480042,7,versionD_stim.csv,ReadVersion_Recog.csv,"Read Recog",Read4,,CAR,RECOG,Presented,137,135,Likert,User,1,"Was this item previously studied?",PRESENTED,Recog,1::2,1213,YES,0,-1,-1,0,0,,1
5b6ffc9399982e000145c789,bm4vow99fk,"Mediated Recog Prolific",1,118,2023-05-08T21:53:32+00:00,1.5317180156708,7,versionD_stim.csv,ReadVersion_Recog.csv,"Read Recog",Read4,,ELECTION,RECOG,Control,94,99,Likert,User,1,"Was this item previously studied?",CONTROL,Recog,1::2,1286,NO,20,-1,-1,0,0,,1
5b6ffc9399982e000145c789,bm4vow99fk,"Mediated Recog Prolific",1,119,2023-05-08T21:53:34+00:00,1.4388608932495,7,versionD_stim.csv,ReadVersion_Recog.csv,"Read Recog",Read4,,DONKEY,RECOG,Control,79,109,Likert,User,1,"Was this item previously studied?",PRESENTED,Recog,1::2,1198,NO,25,-1,-1,0,0,,1
5b6ffc9399982e000145c789,bm4vow99fk,"Mediated Recog Prolific",1,120,2023-05-08T21:53:35+00:00,1.4931011199951,7,versionD_stim.csv,ReadVersion_Recog.csv,"Read Recog",Read4,,SILK,RECOG,Control,65,107,Likert,User,1,"Was this item previously studied?",PRESENTED,Recog,1::2,1245,NO,0,-1,-1,0,0,,1
5b6ffc9399982e000145c789,bm4vow99fk,"Mediated Recog Prolific",1,121,2023-05-08T21:53:37+00:00,1.6566240787506,7,versionD_stim.csv,ReadVersion_Recog.csv,"Read Recog",Read4,,SNOW,RECOG,Presented,106,69,Likert,User,1,"Was this item previously studied?",CONTROL,Recog,1::2,1407,YES,28.571428571429,-1,-1,0,0,,1
5b6ffc9399982e000145c789,bm4vow99fk,"Mediated Recog Prolific",1,122,2023-05-08T21:53:39+00:00,1.4476108551025,7,versionD_stim.csv,ReadVersion_Recog.csv,"Read Recog",Read4,,CAVE,RECOG,Presented,115,88,Likert,User,1,"Was this item previously studied?",CONTROL,Recog,1::2,1203,YES,28.571428571429,-1,-1,0,0,,1
5b6ffc9399982e000145c789,bm4vow99fk,"Mediated Recog Prolific",1,123,2023-05-08T21:53:40+00:00,1.6275489330292,7,versionD_stim.csv,ReadVersion_Recog.csv,"Read Recog",Read4,,ACCIDENT,RECOG,Presented,139,91,Likert,User,1,"Was this item previously studied?",CONTROL,Recog,1::2,1368,NO,20,-1,-1,0,0,,1
5b6ffc9399982e000145c789,bm4vow99fk,"Mediated Recog Prolific",1,124,2023-05-08T21:53:42+00:00,1.6869971752167,7,versionD_stim.csv,ReadVersion_Recog.csv,"Read Recog",Read4,,SENTENCE,RECOG,Control,82,93,Likert,User,1,"Was this item previously studied?",CONTROL,Recog,1::2,1431,NO,20,-1,-1,0,0,,1
5b6ffc9399982e000145c789,bm4vow99fk,"Mediated Recog Prolific",1,125,2023-05-08T21:53:43+00:00,1.4877288341522,7,versionD_stim.csv,ReadVersion_Recog.csv,"Read Recog",Read4,,WHEEL,RECOG,Control,69,75,Likert,User,1,"Was this item previously studied?",CONTROL,Recog,1::2,1254,NO,0,-1,-1,0,0,,1
5b6ffc9399982e000145c789,bm4vow99fk,"Mediated Recog Prolific",1,126,2023-05-08T21:53:45+00:00,1.4753901958466,7,versionD_stim.csv,ReadVersion_Recog.csv,"Read Recog",Read4,,SLEEP,RECOG,Control,84,94,Likert,User,1,"Was this item previously studied?",CONTROL,Recog,1::2,1224,NO,0,-1,-1,0,0,,1
5b6ffc9399982e000145c789,bm4vow99fk,"Mediated Recog Prolific",1,127,2023-05-08T21:53:46+00:00,1.5032668113708,7,versionD_stim.csv,ReadVersion_Recog.csv,"Read Recog",Read4,,STOP,RECOG,Presented,107,106,Likert,User,1,"Was this item previously studied?",PRESENTED,Recog,1::2,1269,YES,28.571428571429,-1,-1,0,0,,1
5b6ffc9399982e000145c789,bm4vow99fk,"Mediated Recog Prolific",1,128,2023-05-08T21:53:49+00:00,2.5416550636292,7,versionD_stim.csv,ReadVersion_Recog.csv,"Read Recog",Read4,,TICK,RECOG,Control,102,64,Likert,User,1,"Was this item previously studied?",CONTROL,Recog,1::2,2278,NO,0,-1,-1,0,0,,1
5b6ffc9399982e000145c789,bm4vow99fk,"Mediated Recog Prolific",1,129,2023-05-08T21:53:51+00:00,2.1407690048218,7,versionD_stim.csv,ReadVersion_Recog.csv,"Read Recog",Read4,,HAND,RECOG,Control,104,72,Likert,User,1,"Was this item previously studied?",CONTROL,Recog,1::2,1751,NO,33.333333333333,-1,-1,0,0,,1
5b6ffc9399982e000145c789,bm4vow99fk,"Mediated Recog Prolific",1,130,2023-05-08T21:53:53+00:00,1.7197511196136,7,versionD_stim.csv,ReadVersion_Recog.csv,"Read Recog",Read4,,FIGHT,RECOG,Presented,131,65,Likert,User,1,"Was this item previously studied?",CONTROL,Recog,1::2,1474,NO,0,-1,-1,0,0,,1
5b6ffc9399982e000145c789,bm4vow99fk,"Mediated Recog Prolific",1,131,2023-05-08T21:53:55+00:00,2.1994898319244,7,versionD_stim.csv,ReadVersion_Recog.csv,"Read Recog",Read4,,HORN,RECOG,Presented,143,89,Likert,User,1,"Was this item previously studied?",CONTROL,Recog,1::2,1946,NO,33.333333333333,-1,-1,0,0,,1
5b6ffc9399982e000145c789,bm4vow99fk,"Mediated Recog Prolific",1,132,2023-05-08T21:53:57+00:00,1.6859171390533,7,versionD_stim.csv,ReadVersion_Recog.csv,"Read Recog",Read4,,LAWYER,RECOG,Presented,111,81,Likert,User,1,"Was this item previously studied?",CONTROL,Recog,1::2,1453,YES,44.444444444444,-1,-1,0,0,,1
5b6ffc9399982e000145c789,bm4vow99fk,"Mediated Recog Prolific",1,133,2023-05-08T21:53:59+00:00,2.2674798965454,7,versionD_stim.csv,ReadVersion_Recog.csv,"Read Recog",Read4,,COLLAR,RECOG,Presented,108,100,Likert,User,1,"Was this item previously studied?",CONTROL,Recog,1::2,2013,NO,25,-1,-1,0,0,,1
5b6ffc9399982e000145c789,bm4vow99fk,"Mediated Recog Prolific",1,134,2023-05-08T21:54:01+00:00,1.9691469669342,7,versionD_stim.csv,ReadVersion_Recog.csv,"Read Recog",Read4,,BUSINESS,RECOG,Presented,144,115,Likert,User,1,"Was this item previously studied?",PRESENTED,Recog,1::2,1729,YES,36.363636363636,-1,-1,0,0,,1
5b6ffc9399982e000145c789,bm4vow99fk,"Mediated Recog Prolific",1,135,2023-05-08T21:54:03+00:00,2.4571671485901,7,versionD_stim.csv,ReadVersion_Recog.csv,"Read Recog",Read4,,DANCE,RECOG,Control,68,83,Likert,User,1,"Was this item previously studied?",CONTROL,Recog,1::2,2211,NO,28.571428571429,-1,-1,0,0,,1
5b6ffc9399982e000145c789,bm4vow99fk,"Mediated Recog Prolific",1,136,2023-05-08T21:54:05+00:00,2.1435828208923,7,versionD_stim.csv,ReadVersion_Recog.csv,"Read Recog",Read4,,FINGER,RECOG,Control,72,121,Likert,User,1,"Was this item previously studied?",PRESENTED,Recog,1::2,1889,NO,25,-1,-1,0,0,,1
5b6ffc9399982e000145c789,bm4vow99fk,"Mediated Recog Prolific",1,137,2023-05-08T21:54:07+00:00,1.2550671100616,7,versionD_stim.csv,ReadVersion_Recog.csv,"Read Recog",Read4,,PLANT,RECOG,Presented,121,78,Likert,User,1,"Was this item previously studied?",CONTROL,Recog,1::2,1012,YES,0,-1,-1,0,0,,1
5b6ffc9399982e000145c789,bm4vow99fk,"Mediated Recog Prolific",1,138,2023-05-08T21:54:09+00:00,1.8568189144135,7,versionD_stim.csv,ReadVersion_Recog.csv,"Read Recog",Read4,,ROD,RECOG,Control,100,125,Likert,User,1,"Was this item previously studied?",PRESENTED,Recog,1::2,1604,NO,40,-1,-1,0,0,,1
5b6ffc9399982e000145c789,bm4vow99fk,"Mediated Recog Prolific",1,139,2023-05-08T21:54:10+00:00,1.9545171260834,7,versionD_stim.csv,ReadVersion_Recog.csv,"Read Recog",Read4,,RIDDLE,RECOG,Presented,140,143,Likert,User,1,"Was this item previously studied?",PRESENTED,Recog,1::2,1707,YES,22.222222222222,-1,-1,0,0,,1
5b6ffc9399982e000145c789,bm4vow99fk,"Mediated Recog Prolific",1,140,2023-05-08T21:54:13+00:00,2.1021599769592,7,versionD_stim.csv,ReadVersion_Recog.csv,"Read Recog",Read4,,BELT,RECOG,Control,101,87,Likert,User,1,"Was this item previously studied?",CONTROL,Recog,1::2,1849,NO,0,-1,-1,0,0,,1
5b6ffc9399982e000145c789,bm4vow99fk,"Mediated Recog Prolific",1,141,2023-05-08T21:54:16+00:00,3.6910209655762,7,versionD_stim.csv,ReadVersion_Recog.csv,"Read Recog",Read4,,FIRE,RECOG,Presented,126,59,Likert,User,1,"Was this item previously studied?",CONTROL,Recog,1::2,3465,NO,0,-1,-1,0,0,,1
5b6ffc9399982e000145c789,bm4vow99fk,"Mediated Recog Prolific",1,142,2023-05-08T21:54:18+00:00,1.4579179286957,7,versionD_stim.csv,ReadVersion_Recog.csv,"Read Recog",Read4,,BIRD,RECOG,Control,81,77,Likert,User,1,"Was this item previously studied?",CONTROL,Recog,1::2,1206,YES,0,-1,-1,0,0,,1
5b6ffc9399982e000145c789,bm4vow99fk,"Mediated Recog Prolific",1,143,2023-05-08T21:54:19+00:00,1.4580140113831,7,versionD_stim.csv,ReadVersion_Recog.csv,"Read Recog",Read4,,FICTION,RECOG,Control,99,113,Likert,User,1,"Was this item previously studied?",PRESENTED,Recog,1::2,1218,NO,22.222222222222,-1,-1,0,0,,1
5b6ffc9399982e000145c789,bm4vow99fk,"Mediated Recog Prolific",1,144,2023-05-08T21:54:21+00:00,1.7163641452789,7,versionD_stim.csv,ReadVersion_Recog.csv,"Read Recog",Read4,,HIDE,RECOG,Presented,145,116,Likert,User,1,"Was this item previously studied?",PRESENTED,Recog,1::2,1455,NO,0,-1,-1,0,0,,1
5b6ffc9399982e000145c789,bm4vow99fk,"Mediated Recog Prolific",1,145,2023-05-08T21:54:23+00:00,1.9093418121338,7,versionD_stim.csv,ReadVersion_Recog.csv,"Read Recog",Read4,,CUT,RECOG,Presented,122,128,Likert,User,1,"Was this item previously studied?",PRESENTED,Recog,1::2,1500,YES,0,-1,-1,0,0,,1
5b6ffc9399982e000145c789,bm4vow99fk,"Mediated Recog Prolific",1,146,2023-05-08T21:54:24+00:00,1.440101146698,7,versionD_stim.csv,ReadVersion_Recog.csv,"Read Recog",Read4,,SACK,RECOG,Presented,142,68,Likert,User,1,"Was this item previously studied?",CONTROL,Recog,1::2,1193,NO,0,-1,-1,0,0,,1
5b6ffc9399982e000145c789,bm4vow99fk,"Mediated Recog Prolific",1,147,2023-05-08T21:54:27+00:00,2.2752778530121,7,versionD_stim.csv,ReadVersion_Recog.csv,"Read Recog",Read4,,CLUTTER,RECOG,Presented,141,61,Likert,User,1,"Was this item previously studied?",CONTROL,Recog,1::2,2030,YES,20,-1,-1,0,0,,1
5b6ffc9399982e000145c789,bm4vow99fk,"Mediated Recog Prolific",1,148,2023-05-08T21:54:29+00:00,2.463828086853,7,versionD_stim.csv,ReadVersion_Recog.csv,"Read Recog",Read4,,TRASH,RECOG,Control,76,111,Likert,User,1,"Was this item previously studied?",PRESENTED,Recog,1::2,2217,NO,0,-1,-1,0,0,,1
5b6ffc9399982e000145c789,bm4vow99fk,"Mediated Recog Prolific",1,149,2023-05-08T21:54:31+00:00,2.1068711280823,7,versionD_stim.csv,ReadVersion_Recog.csv,"Read Recog",Read4,,MUSCLE,RECOG,Presented,120,84,Likert,User,1,"Was this item previously studied?",CONTROL,Recog,1::2,1869,YES,22.222222222222,-1,-1,0,0,,1
5b6ffc9399982e000145c789,bm4vow99fk,"Mediated Recog Prolific",1,150,2023-05-08T21:54:33+00:00,2.3731098175049,7,versionD_stim.csv,ReadVersion_Recog.csv,"Read Recog",Read4,,KNOB,RECOG,Presented,119,57,Likert,User,1,"Was this item previously studied?",CONTROL,Recog,1::2,2125,YES,0,-1,-1,0,0,,1
5b6ffc9399982e000145c789,bm4vow99fk,"Mediated Recog Prolific",1,151,2023-05-08T21:54:35+00:00,1.5389680862427,7,versionD_stim.csv,ReadVersion_Recog.csv,"Read Recog",Read4,,,,,,0,Instruct,User,-,"You have completed this section. Please press Enter.",,Instruct7,,1297,,,-1,-1,,,,1
5b6ffc9399982e000145c789,bm4vow99fk,"Mediated Recog Prolific",1,152,2023-05-08T21:54:37+00:00,2.1847589015961,7,versionD_stim.csv,ReadVersion_Recog.csv,"Read Recog",Read4,,,,,,0,Instruct,User,-,"The following screen will ask you a few questions abour your experience today. You must complete these questions to receive credit.",,Instruct8,,1938,,,-1,-1,,,,1
