Username,ID,ExperimentName,Session,Trial,Date,TimeDif,"Condition Number","Stimuli File","Order File","Condition Description","Condition Notes",Stimuli*Cue,Stimuli*Answer,Stimuli*Shuffle,"Stimuli*Stimuli Notes",Stimuli*Value,Procedure*Item,"Procedure*Trial Type","Procedure*Max Time","Procedure*Min Time",Procedure*Text,"Procedure*Procedure Notes",Procedure*Shuffle,Procedure*,Response*RT,Response*Response,Response*Accuracy,Response*RTfirst,Response*RTlast,Response*strictAcc,Response*lenientAcc,Response*focus,Response*Focus
60d3867b6e7529fc77032b54,deo1t2g37l,"Mediated Recog Prolific",1,1,2023-05-08T21:08:36+00:00,6.4574439525604,5,versionC_stim.csv,ReadVersion_Recog.csv,"Read Recog",Read3,,,,,,0,Instruct,-,5,"In this section, you will be presented with a series of word pairs. Please study each word pair! Your memory will be tested!",Initial_Instruct,Instruct1,,6123,,,-1,-1,,,,1
60d3867b6e7529fc77032b54,deo1t2g37l,"Mediated Recog Prolific",1,2,2023-05-08T21:08:39+00:00,2.8714361190796,5,versionC_stim.csv,ReadVersion_Recog.csv,"Read Recog",Read3,,,,,,0,Instruct,User,-,"You will now begin. Press Enter when you are ready to begin.",,Instruct16,,2394,,,-1,-1,,,,1
60d3867b6e7529fc77032b54,deo1t2g37l,"Mediated Recog Prolific",1,3,2023-05-08T21:09:11+00:00,32.020128011703,5,versionC_stim.csv,ReadVersion_Recog.csv,"Read Recog",Read3,PITCHER,CATCHER,BUFFER1,Buffer,2,2,Study,User,-,,Study/JOL,BUFFER,,31460,,,-1,-1,,,,0.338
60d3867b6e7529fc77032b54,deo1t2g37l,"Mediated Recog Prolific",1,4,2023-05-08T21:09:23+00:00,11.940958023071,5,versionC_stim.csv,ReadVersion_Recog.csv,"Read Recog",Read3,SPACE,JAM,BUFFER1,Buffer,5,3,Study,User,-,,Study/JOL,BUFFER,,11265,,,-1,-1,,,,0.737
60d3867b6e7529fc77032b54,deo1t2g37l,"Mediated Recog Prolific",1,5,2023-05-08T21:09:33+00:00,10.200306892395,5,versionC_stim.csv,ReadVersion_Recog.csv,"Read Recog",Read3,PEANUT,BUTTER,BUFFER1,Buffer,3,6,Study,User,-,,Study/JOL,BUFFER,,9745,,,-1,-1,,,,0.714
60d3867b6e7529fc77032b54,deo1t2g37l,"Mediated Recog Prolific",1,6,2023-05-08T21:09:42+00:00,9.2644050121307,5,versionC_stim.csv,ReadVersion_Recog.csv,"Read Recog",Read3,SCARE,FRIGHT,BUFFER1,Buffer,4,5,Study,User,-,,Study/JOL,BUFFER,,8729,,,-1,-1,,,,0.636
60d3867b6e7529fc77032b54,deo1t2g37l,"Mediated Recog Prolific",1,7,2023-05-08T21:09:50+00:00,7.2552919387817,5,versionC_stim.csv,ReadVersion_Recog.csv,"Read Recog",Read3,TREES,GREEN,BUFFER1,Buffer,1,4,Study,User,-,,Study/JOL,BUFFER,,6775,,,-1,-1,,,,0.676
60d3867b6e7529fc77032b54,deo1t2g37l,"Mediated Recog Prolific",1,8,2023-05-08T21:10:07+00:00,17.362925052643,5,versionC_stim.csv,ReadVersion_Recog.csv,"Read Recog",Read3,MULE,DONKEY,Study1,F,24,20,Study,User,-,,Study/JOL,"Study Phase",,16856,,,-1,-1,,,,0.635
60d3867b6e7529fc77032b54,deo1t2g37l,"Mediated Recog Prolific",1,9,2023-05-08T21:10:15+00:00,8.1299591064453,5,versionC_stim.csv,ReadVersion_Recog.csv,"Read Recog",Read3,TREE,SYRUP,Study1,M,11,13,Study,User,-,,Study/JOL,"Study Phase",,7421,,,-1,-1,,,,0.676
60d3867b6e7529fc77032b54,deo1t2g37l,"Mediated Recog Prolific",1,10,2023-05-08T21:10:24+00:00,8.8044848442078,5,versionC_stim.csv,ReadVersion_Recog.csv,"Read Recog",Read3,SIP,DRINK,Study1,F,32,27,Study,User,-,,Study/JOL,"Study Phase",,8306,,,-1,-1,,,,0.714
60d3867b6e7529fc77032b54,deo1t2g37l,"Mediated Recog Prolific",1,11,2023-05-08T21:10:34+00:00,10.565788984299,5,versionC_stim.csv,ReadVersion_Recog.csv,"Read Recog",Read3,CEILING,CARPET,Study1,M,15,31,Study,User,-,,Study/JOL,"Study Phase",,9889,,,-1,-1,,,,0.72
60d3867b6e7529fc77032b54,deo1t2g37l,"Mediated Recog Prolific",1,12,2023-05-08T21:10:43+00:00,9.0485579967499,5,versionC_stim.csv,ReadVersion_Recog.csv,"Read Recog",Read3,HARD,COTTON,Study1,M,20,7,Study,User,-,,Study/JOL,"Study Phase",,8628,,,-1,-1,,,,0.705
60d3867b6e7529fc77032b54,deo1t2g37l,"Mediated Recog Prolific",1,13,2023-05-08T21:10:55+00:00,11.44273519516,5,versionC_stim.csv,ReadVersion_Recog.csv,"Read Recog",Read3,ORCHID,FLOWER,Study1,F,34,11,Study,User,-,,Study/JOL,"Study Phase",,11012,,,-1,-1,,,,0.655
60d3867b6e7529fc77032b54,deo1t2g37l,"Mediated Recog Prolific",1,14,2023-05-08T21:11:06+00:00,11.150517940521,5,versionC_stim.csv,ReadVersion_Recog.csv,"Read Recog",Read3,CRACKLE,ELECTION,Study1,U,39,17,Study,User,-,,Study/JOL,"Study Phase",,10740,,,-1,-1,,,,0.667
60d3867b6e7529fc77032b54,deo1t2g37l,"Mediated Recog Prolific",1,15,2023-05-08T21:11:14+00:00,7.755224943161,5,versionC_stim.csv,ReadVersion_Recog.csv,"Read Recog",Read3,GIVE,STEAK,Study1,U,38,39,Study,User,-,,Study/JOL,"Study Phase",,7351,,,-1,-1,,,,0.784
60d3867b6e7529fc77032b54,deo1t2g37l,"Mediated Recog Prolific",1,16,2023-05-08T21:11:21+00:00,7.467493057251,5,versionC_stim.csv,ReadVersion_Recog.csv,"Read Recog",Read3,NAP,SLEEP,Study1,F,29,12,Study,User,-,,Study/JOL,"Study Phase",,6993,,,-1,-1,,,,0.686
60d3867b6e7529fc77032b54,deo1t2g37l,"Mediated Recog Prolific",1,17,2023-05-08T21:11:29+00:00,7.7570600509644,5,versionC_stim.csv,ReadVersion_Recog.csv,"Read Recog",Read3,CREDIT,CARD,Study1,F,33,42,Study,User,-,,Study/JOL,"Study Phase",,7283,,,-1,-1,,,,0.676
60d3867b6e7529fc77032b54,deo1t2g37l,"Mediated Recog Prolific",1,18,2023-05-08T21:11:38+00:00,8.8871078491211,5,versionC_stim.csv,ReadVersion_Recog.csv,"Read Recog",Read3,LION,STRIPES,Study1,M,6,33,Study,User,-,,Study/JOL,"Study Phase",,8394,,,-1,-1,,,,0.643
60d3867b6e7529fc77032b54,deo1t2g37l,"Mediated Recog Prolific",1,19,2023-05-08T21:11:45+00:00,7.2028419971466,5,versionC_stim.csv,ReadVersion_Recog.csv,"Read Recog",Read3,SIGN,TICK,Study1,U,47,8,Study,User,-,,Study/JOL,"Study Phase",,6759,,,-1,-1,,,,0.706
60d3867b6e7529fc77032b54,deo1t2g37l,"Mediated Recog Prolific",1,20,2023-05-08T21:11:56+00:00,10.834769964218,5,versionC_stim.csv,ReadVersion_Recog.csv,"Read Recog",Read3,BIRTHDAY,PIE,Study1,M,9,15,Study,User,-,,Study/JOL,"Study Phase",,10239,,,-1,-1,,,,0.654
60d3867b6e7529fc77032b54,deo1t2g37l,"Mediated Recog Prolific",1,21,2023-05-08T21:12:04+00:00,7.8958489894867,5,versionC_stim.csv,ReadVersion_Recog.csv,"Read Recog",Read3,HYGIENE,CLEAN,Study1,F,28,44,Study,User,-,,Study/JOL,"Study Phase",,7353,,,-1,-1,,,,0.73
60d3867b6e7529fc77032b54,deo1t2g37l,"Mediated Recog Prolific",1,22,2023-05-08T21:12:12+00:00,7.8324341773987,5,versionC_stim.csv,ReadVersion_Recog.csv,"Read Recog",Read3,CRY,BOTTLE,Study1,M,16,14,Study,User,-,,Study/JOL,"Study Phase",,7360,,,-1,-1,,,,0.622
60d3867b6e7529fc77032b54,deo1t2g37l,"Mediated Recog Prolific",1,23,2023-05-08T21:12:19+00:00,7.0447080135345,5,versionC_stim.csv,ReadVersion_Recog.csv,"Read Recog",Read3,DAY,DARK,Study1,M,18,40,Study,User,-,,Study/JOL,"Study Phase",,6618,,,-1,-1,,,,0.636
60d3867b6e7529fc77032b54,deo1t2g37l,"Mediated Recog Prolific",1,24,2023-05-08T21:12:27+00:00,8.3336989879608,5,versionC_stim.csv,ReadVersion_Recog.csv,"Read Recog",Read3,STRETCH,CLOTH,Study1,U,37,26,Study,User,-,,Study/JOL,"Study Phase",,7914,,,-1,-1,,,,0.725
60d3867b6e7529fc77032b54,deo1t2g37l,"Mediated Recog Prolific",1,25,2023-05-08T21:12:35+00:00,8.1157288551331,5,versionC_stim.csv,ReadVersion_Recog.csv,"Read Recog",Read3,MEAT,KEYS,Study1,U,41,43,Study,User,-,,Study/JOL,"Study Phase",,7686,,,-1,-1,,,,0.692
60d3867b6e7529fc77032b54,deo1t2g37l,"Mediated Recog Prolific",1,26,2023-05-08T21:12:43+00:00,7.5659101009369,5,versionC_stim.csv,ReadVersion_Recog.csv,"Read Recog",Read3,CIRCLE,DANCE,Study1,M,13,49,Study,User,-,,Study/JOL,"Study Phase",,7132,,,-1,-1,,,,0.694
60d3867b6e7529fc77032b54,deo1t2g37l,"Mediated Recog Prolific",1,27,2023-05-08T21:12:51+00:00,8.1550920009613,5,versionC_stim.csv,ReadVersion_Recog.csv,"Read Recog",Read3,WEDDING,FINGER,Study1,M,17,23,Study,User,-,,Study/JOL,"Study Phase",,7753,,,-1,-1,,,,0.641
60d3867b6e7529fc77032b54,deo1t2g37l,"Mediated Recog Prolific",1,28,2023-05-08T21:12:58+00:00,7.5454058647156,5,versionC_stim.csv,ReadVersion_Recog.csv,"Read Recog",Read3,LISTEN,FICTION,Study1,U,44,41,Study,User,-,,Study/JOL,"Study Phase",,7127,,,-1,-1,,,,0.694
60d3867b6e7529fc77032b54,deo1t2g37l,"Mediated Recog Prolific",1,29,2023-05-08T21:13:06+00:00,7.2198770046234,5,versionC_stim.csv,ReadVersion_Recog.csv,"Read Recog",Read3,ROUGH,SILK,Study1,M,10,36,Study,User,-,,Study/JOL,"Study Phase",,6807,,,-1,-1,,,,0.706
60d3867b6e7529fc77032b54,deo1t2g37l,"Mediated Recog Prolific",1,30,2023-05-08T21:13:13+00:00,7.369127035141,5,versionC_stim.csv,ReadVersion_Recog.csv,"Read Recog",Read3,BEACH,BOX,Study1,M,7,22,Study,User,-,,Study/JOL,"Study Phase",,6889,,,-1,-1,,,,0.714
60d3867b6e7529fc77032b54,deo1t2g37l,"Mediated Recog Prolific",1,31,2023-05-08T21:13:22+00:00,9.1361169815063,5,versionC_stim.csv,ReadVersion_Recog.csv,"Read Recog",Read3,AFFECTION,LOVE,Study1,F,31,25,Study,User,-,,Study/JOL,"Study Phase",,8642,,,-1,-1,,,,0.705
60d3867b6e7529fc77032b54,deo1t2g37l,"Mediated Recog Prolific",1,32,2023-05-08T21:13:32+00:00,9.4550061225891,5,versionC_stim.csv,ReadVersion_Recog.csv,"Read Recog",Read3,VEHICLE,CHARM,Study1,U,40,34,Study,User,-,,Study/JOL,"Study Phase",,8713,,,-1,-1,,,,0.682
60d3867b6e7529fc77032b54,deo1t2g37l,"Mediated Recog Prolific",1,33,2023-05-08T21:13:39+00:00,7.4256339073181,5,versionC_stim.csv,ReadVersion_Recog.csv,"Read Recog",Read3,ROOT,PLANT,Study1,F,25,10,Study,User,-,,Study/JOL,"Study Phase",,6957,,,-1,-1,,,,0.657
60d3867b6e7529fc77032b54,deo1t2g37l,"Mediated Recog Prolific",1,34,2023-05-08T21:13:46+00:00,7.2759261131287,5,versionC_stim.csv,ReadVersion_Recog.csv,"Read Recog",Read3,FUZZY,BANG,Study1,U,50,16,Study,User,-,,Study/JOL,"Study Phase",,6843,,,-1,-1,,,,0.714
60d3867b6e7529fc77032b54,deo1t2g37l,"Mediated Recog Prolific",1,35,2023-05-08T21:13:55+00:00,8.7424728870392,5,versionC_stim.csv,ReadVersion_Recog.csv,"Read Recog",Read3,SHELL,SHAKE,Study1,U,43,32,Study,User,-,,Study/JOL,"Study Phase",,8322,,,-1,-1,,,,0.571
60d3867b6e7529fc77032b54,deo1t2g37l,"Mediated Recog Prolific",1,36,2023-05-08T21:14:03+00:00,7.9410700798035,5,versionC_stim.csv,ReadVersion_Recog.csv,"Read Recog",Read3,BAT,BOUNCE,Study1,M,12,30,Study,User,-,,Study/JOL,"Study Phase",,7306,,,-1,-1,,,,0.676
60d3867b6e7529fc77032b54,deo1t2g37l,"Mediated Recog Prolific",1,37,2023-05-08T21:14:11+00:00,7.9812848567963,5,versionC_stim.csv,ReadVersion_Recog.csv,"Read Recog",Read3,MULE,DONKEY,Study1,F,30,51,Study,User,-,,Study/JOL,"Study Phase",,7542,,,-1,-1,,,,0.684
60d3867b6e7529fc77032b54,deo1t2g37l,"Mediated Recog Prolific",1,38,2023-05-08T21:14:19+00:00,7.7334461212158,5,versionC_stim.csv,ReadVersion_Recog.csv,"Read Recog",Read3,SWAN,BIRD,Study1,F,26,35,Study,User,-,,Study/JOL,"Study Phase",,7288,,,-1,-1,,,,0.649
60d3867b6e7529fc77032b54,deo1t2g37l,"Mediated Recog Prolific",1,39,2023-05-08T21:14:26+00:00,7.2063789367676,5,versionC_stim.csv,ReadVersion_Recog.csv,"Read Recog",Read3,MIRROR,MAROON,Study1,U,36,46,Study,User,-,,Study/JOL,"Study Phase",,6763,,,-1,-1,,,,0.676
60d3867b6e7529fc77032b54,deo1t2g37l,"Mediated Recog Prolific",1,40,2023-05-08T21:14:35+00:00,8.8576321601868,5,versionC_stim.csv,ReadVersion_Recog.csv,"Read Recog",Read3,SCALP,HEAD,Study1,F,23,38,Study,User,-,,Study/JOL,"Study Phase",,8401,,,-1,-1,,,,0.786
60d3867b6e7529fc77032b54,deo1t2g37l,"Mediated Recog Prolific",1,41,2023-05-08T21:14:42+00:00,7.3158309459686,5,versionC_stim.csv,ReadVersion_Recog.csv,"Read Recog",Read3,WAGE,MONEY,Study1,F,22,24,Study,User,-,,Study/JOL,"Study Phase",,6888,,,-1,-1,,,,0.686
60d3867b6e7529fc77032b54,deo1t2g37l,"Mediated Recog Prolific",1,42,2023-05-08T21:14:49+00:00,6.8340249061584,5,versionC_stim.csv,ReadVersion_Recog.csv,"Read Recog",Read3,WAR,QUIET,Study1,M,8,37,Study,User,-,,Study/JOL,"Study Phase",,6396,,,-1,-1,,,,0.688
60d3867b6e7529fc77032b54,deo1t2g37l,"Mediated Recog Prolific",1,43,2023-05-08T21:14:55+00:00,6.4193959236145,5,versionC_stim.csv,ReadVersion_Recog.csv,"Read Recog",Read3,MAZE,PHONE,Study1,U,42,19,Study,User,-,,Study/JOL,"Study Phase",,5948,,,-1,-1,,,,0.7
60d3867b6e7529fc77032b54,deo1t2g37l,"Mediated Recog Prolific",1,44,2023-05-08T21:15:02+00:00,7.0925400257111,5,versionC_stim.csv,ReadVersion_Recog.csv,"Read Recog",Read3,TOOTH,HAIR,Study1,M,19,29,Study,User,-,,Study/JOL,"Study Phase",,6661,,,-1,-1,,,,0.706
60d3867b6e7529fc77032b54,deo1t2g37l,"Mediated Recog Prolific",1,45,2023-05-08T21:15:10+00:00,7.8188190460205,5,versionC_stim.csv,ReadVersion_Recog.csv,"Read Recog",Read3,LITTER,TRASH,Study1,F,21,9,Study,User,-,,Study/JOL,"Study Phase",,7396,,,-1,-1,,,,0.73
60d3867b6e7529fc77032b54,deo1t2g37l,"Mediated Recog Prolific",1,46,2023-05-08T21:15:17+00:00,6.7888059616089,5,versionC_stim.csv,ReadVersion_Recog.csv,"Read Recog",Read3,TUNA,FISH,Study1,F,35,45,Study,User,-,,Study/JOL,"Study Phase",,6353,,,-1,-1,,,,0.625
60d3867b6e7529fc77032b54,deo1t2g37l,"Mediated Recog Prolific",1,47,2023-05-08T21:15:23+00:00,6.303836107254,5,versionC_stim.csv,ReadVersion_Recog.csv,"Read Recog",Read3,CAKE,HAND,Study1,U,49,18,Study,User,-,,Study/JOL,"Study Phase",,5793,,,-1,-1,,,,0.655
60d3867b6e7529fc77032b54,deo1t2g37l,"Mediated Recog Prolific",1,48,2023-05-08T21:15:30+00:00,6.451611995697,5,versionC_stim.csv,ReadVersion_Recog.csv,"Read Recog",Read3,KEYS,ROD,Study1,U,45,48,Study,User,-,,Study/JOL,"Study Phase",,6017,,,-1,-1,,,,0.742
60d3867b6e7529fc77032b54,deo1t2g37l,"Mediated Recog Prolific",1,49,2023-05-08T21:15:37+00:00,7.2205278873444,5,versionC_stim.csv,ReadVersion_Recog.csv,"Read Recog",Read3,HORSE,WHEEL,Study1,M,14,50,Study,User,-,,Study/JOL,"Study Phase",,6732,,,-1,-1,,,,0.618
60d3867b6e7529fc77032b54,deo1t2g37l,"Mediated Recog Prolific",1,50,2023-05-08T21:15:44+00:00,7.4589622020721,5,versionC_stim.csv,ReadVersion_Recog.csv,"Read Recog",Read3,WORD,SENTENCE,Study1,F,27,28,Study,User,-,,Study/JOL,"Study Phase",,6959,,,-1,-1,,,,0.657
60d3867b6e7529fc77032b54,deo1t2g37l,"Mediated Recog Prolific",1,51,2023-05-08T21:15:52+00:00,7.4460787773132,5,versionC_stim.csv,ReadVersion_Recog.csv,"Read Recog",Read3,SOON,BELT,Study1,U,46,21,Study,User,-,,Study/JOL,"Study Phase",,6937,,,-1,-1,,,,0.686
60d3867b6e7529fc77032b54,deo1t2g37l,"Mediated Recog Prolific",1,52,2023-05-08T21:15:59+00:00,7.0916540622711,5,versionC_stim.csv,ReadVersion_Recog.csv,"Read Recog",Read3,TEMPERATURE,MORNING,Study1,U,48,47,Study,User,-,,Study/JOL,"Study Phase",,6338,,,-1,-1,,,,0.719
60d3867b6e7529fc77032b54,deo1t2g37l,"Mediated Recog Prolific",1,53,2023-05-08T21:16:05+00:00,6.3934299945831,5,versionC_stim.csv,ReadVersion_Recog.csv,"Read Recog",Read3,MOON,SPACE,BUFFER2,Buffer,54,54,Study,User,-,,Study/JOL,BUFFER2,,5907,,,-1,-1,,,,0.7
60d3867b6e7529fc77032b54,deo1t2g37l,"Mediated Recog Prolific",1,54,2023-05-08T21:16:12+00:00,6.4011740684509,5,versionC_stim.csv,ReadVersion_Recog.csv,"Read Recog",Read3,GEESE,GOOSE,BUFFER2,Buffer,51,52,Study,User,-,,Study/JOL,BUFFER2,,5905,,,-1,-1,,,,0.7
60d3867b6e7529fc77032b54,deo1t2g37l,"Mediated Recog Prolific",1,55,2023-05-08T21:16:19+00:00,6.7086799144745,5,versionC_stim.csv,ReadVersion_Recog.csv,"Read Recog",Read3,MALT,CHOCOLATE,BUFFER2,Buffer,53,53,Study,User,-,,Study/JOL,BUFFER2,,6295,,,-1,-1,,,,0.688
60d3867b6e7529fc77032b54,deo1t2g37l,"Mediated Recog Prolific",1,56,2023-05-08T21:16:25+00:00,6.03963804245,5,versionC_stim.csv,ReadVersion_Recog.csv,"Read Recog",Read3,THING,STUFF,BUFFER2,Buffer,55,56,Study,User,-,,Study/JOL,BUFFER2,,5616,,,-1,-1,,,,0.679
60d3867b6e7529fc77032b54,deo1t2g37l,"Mediated Recog Prolific",1,57,2023-05-08T21:16:33+00:00,8.7891049385071,5,versionC_stim.csv,ReadVersion_Recog.csv,"Read Recog",Read3,SHERRIF,POLICE,BUFFER2,Buffer,52,55,Study,User,-,,Study/JOL,BUFFER2,,8310,,,-1,-1,,,,0.786
60d3867b6e7529fc77032b54,deo1t2g37l,"Mediated Recog Prolific",1,58,2023-05-08T21:16:35+00:00,2.0713140964508,5,versionC_stim.csv,ReadVersion_Recog.csv,"Read Recog",Read3,,,,,,0,Instruct,User,-,"You have completed this section. Please press Enter.",Filler_Instruction,Instruct2,,1609,,,-1,-1,,,,1
60d3867b6e7529fc77032b54,deo1t2g37l,"Mediated Recog Prolific",1,59,2023-05-08T21:18:36+00:00,120.67987704277,5,versionC_stim.csv,ReadVersion_Recog.csv,"Read Recog",Read3,,,,,,0,FreeRecall,120,120,"Please list the 50 US states in alphabetical order. The task will automatically advance to the next screen after two minutes.",,Filler1,,120003,"alabama alaska california detroit delaware florida idaho indiana louisiana nevada oregon orange county ",0,4272,91946,0,0,,1
60d3867b6e7529fc77032b54,deo1t2g37l,"Mediated Recog Prolific",1,60,2023-05-08T21:18:48+00:00,12.152819871902,5,versionC_stim.csv,ReadVersion_Recog.csv,"Read Recog",Read3,,,,,,0,Instruct,User,10,"Your memory will now be tested. You will be presented with a series of words that may or may not have been previously presented alongside another word. If the word on the screen was previously studied, please select YES. If the word was not studied, select NO. PLEASE DO NOT SKIP ITEMS! Click next when you are ready to begin.",,Instruc7982154d,,11415,,,-1,-1,,,,1
60d3867b6e7529fc77032b54,deo1t2g37l,"Mediated Recog Prolific",1,61,2023-05-08T21:18:52+00:00,3.3479850292206,5,versionC_stim.csv,ReadVersion_Recog.csv,"Read Recog",Read3,,RED,RECOG,CONTROL,76,81,Likert,User,1,"Was this item previously studied?",CONTROL,Recog,1::2,2859,NO,0,-1,-1,0,0,,1
60d3867b6e7529fc77032b54,deo1t2g37l,"Mediated Recog Prolific",1,62,2023-05-08T21:18:54+00:00,2.6232650279999,5,versionC_stim.csv,ReadVersion_Recog.csv,"Read Recog",Read3,,CAVE,RECOG,CONTROL,66,111,Likert,User,1,"Was this item previously studied?",PRESENTED,Recog,1::2,2214,NO,0,-1,-1,0,0,,1
60d3867b6e7529fc77032b54,deo1t2g37l,"Mediated Recog Prolific",1,63,2023-05-08T21:18:57+00:00,2.8824710845947,5,versionC_stim.csv,ReadVersion_Recog.csv,"Read Recog",Read3,,DANCE,RECOG,Presented,109,57,Likert,User,1,"Was this item previously studied?",CONTROL,Recog,1::2,2321,NO,28.571428571429,-1,-1,0,0,,1
60d3867b6e7529fc77032b54,deo1t2g37l,"Mediated Recog Prolific",1,64,2023-05-08T21:19:00+00:00,2.6770198345184,5,versionC_stim.csv,ReadVersion_Recog.csv,"Read Recog",Read3,,WHEEL,RECOG,Presented,110,59,Likert,User,1,"Was this item previously studied?",CONTROL,Recog,1::2,2205,YES,25,-1,-1,0,0,,1
60d3867b6e7529fc77032b54,deo1t2g37l,"Mediated Recog Prolific",1,65,2023-05-08T21:19:03+00:00,3.6774880886078,5,versionC_stim.csv,ReadVersion_Recog.csv,"Read Recog",Read3,,PLANT,RECOG,Presented,121,107,Likert,User,1,"Was this item previously studied?",PRESENTED,Recog,1::2,3259,NO,28.571428571429,-1,-1,0,0,,1
60d3867b6e7529fc77032b54,deo1t2g37l,"Mediated Recog Prolific",1,66,2023-05-08T21:19:07+00:00,3.556932926178,5,versionC_stim.csv,ReadVersion_Recog.csv,"Read Recog",Read3,,LOVE,RECOG,Presented,127,78,Likert,User,1,"Was this item previously studied?",CONTROL,Recog,1::2,3140,NO,33.333333333333,-1,-1,0,0,,1
60d3867b6e7529fc77032b54,deo1t2g37l,"Mediated Recog Prolific",1,67,2023-05-08T21:19:10+00:00,2.6847550868988,5,versionC_stim.csv,ReadVersion_Recog.csv,"Read Recog",Read3,,HAMMER,RECOG,CONTROL,74,117,Likert,User,1,"Was this item previously studied?",PRESENTED,Recog,1::2,2280,NO,0,-1,-1,0,0,,1
60d3867b6e7529fc77032b54,deo1t2g37l,"Mediated Recog Prolific",1,68,2023-05-08T21:19:13+00:00,3.2657179832458,5,versionC_stim.csv,ReadVersion_Recog.csv,"Read Recog",Read3,,PIE,RECOG,Presented,105,145,Likert,User,1,"Was this item previously studied?",PRESENTED,Recog,1::2,2804,NO,0,-1,-1,0,0,,1
60d3867b6e7529fc77032b54,deo1t2g37l,"Mediated Recog Prolific",1,69,2023-05-08T21:19:16+00:00,3.0539100170135,5,versionC_stim.csv,ReadVersion_Recog.csv,"Read Recog",Read3,,TOIL,RECOG,CONTROL,97,106,Likert,User,1,"Was this item previously studied?",PRESENTED,Recog,1::2,2595,NO,33.333333333333,-1,-1,0,0,,1
60d3867b6e7529fc77032b54,deo1t2g37l,"Mediated Recog Prolific",1,70,2023-05-08T21:19:44+00:00,28.169553041458,5,versionC_stim.csv,ReadVersion_Recog.csv,"Read Recog",Read3,,PHONE,RECOG,Presented,138,77,Likert,User,1,"Was this item previously studied?",CONTROL,Recog,1::2,27318,NO,28.571428571429,-1,-1,0,0,,0.146
60d3867b6e7529fc77032b54,deo1t2g37l,"Mediated Recog Prolific",1,71,2023-05-08T21:19:54+00:00,10.1461789608,5,versionC_stim.csv,ReadVersion_Recog.csv,"Read Recog",Read3,,COLD,RECOG,CONTROL,83,95,Likert,User,1,"Was this item previously studied?",CONTROL,Recog,1::2,9611,NO,33.333333333333,-1,-1,0,0,,0.5
60d3867b6e7529fc77032b54,deo1t2g37l,"Mediated Recog Prolific",1,72,2023-05-08T21:19:59+00:00,4.7169609069824,5,versionC_stim.csv,ReadVersion_Recog.csv,"Read Recog",Read3,,TICK,RECOG,Presented,143,74,Likert,User,1,"Was this item previously studied?",CONTROL,Recog,1::2,4297,YES,0,-1,-1,0,0,,1
60d3867b6e7529fc77032b54,deo1t2g37l,"Mediated Recog Prolific",1,73,2023-05-08T21:20:06+00:00,7.2541451454163,5,versionC_stim.csv,ReadVersion_Recog.csv,"Read Recog",Read3,,PLANT,RECOG,CONTROL,72,125,Likert,User,1,"Was this item previously studied?",PRESENTED,Recog,1::2,6847,YES,0,-1,-1,0,0,,0.571
60d3867b6e7529fc77032b54,deo1t2g37l,"Mediated Recog Prolific",1,74,2023-05-08T21:20:16+00:00,9.795881986618,5,versionC_stim.csv,ReadVersion_Recog.csv,"Read Recog",Read3,,TRASH,RECOG,Presented,117,65,Likert,User,1,"Was this item previously studied?",CONTROL,Recog,1::2,9384,YES,25,-1,-1,0,0,,0.489
60d3867b6e7529fc77032b54,deo1t2g37l,"Mediated Recog Prolific",1,75,2023-05-08T21:20:24+00:00,8.1324288845062,5,versionC_stim.csv,ReadVersion_Recog.csv,"Read Recog",Read3,,SYRUP,RECOG,Presented,107,89,Likert,User,1,"Was this item previously studied?",CONTROL,Recog,1::2,7702,YES,25,-1,-1,0,0,,0.538
60d3867b6e7529fc77032b54,deo1t2g37l,"Mediated Recog Prolific",1,76,2023-05-08T21:20:31+00:00,7.1792759895325,5,versionC_stim.csv,ReadVersion_Recog.csv,"Read Recog",Read3,,FLOWER,RECOG,Presented,130,76,Likert,User,1,"Was this item previously studied?",CONTROL,Recog,1::2,6730,YES,22.222222222222,-1,-1,0,0,,0.529
60d3867b6e7529fc77032b54,deo1t2g37l,"Mediated Recog Prolific",1,77,2023-05-08T21:20:39+00:00,7.7557330131531,5,versionC_stim.csv,ReadVersion_Recog.csv,"Read Recog",Read3,,COTTON,RECOG,Presented,116,130,Likert,User,1,"Was this item previously studied?",PRESENTED,Recog,1::2,7335,YES,0,-1,-1,0,0,,0.541
60d3867b6e7529fc77032b54,deo1t2g37l,"Mediated Recog Prolific",1,78,2023-05-08T21:20:47+00:00,7.9952371120453,5,versionC_stim.csv,ReadVersion_Recog.csv,"Read Recog",Read3,,BANG,RECOG,Presented,146,91,Likert,User,1,"Was this item previously studied?",CONTROL,Recog,1::2,7576,YES,0,-1,-1,0,0,,0.474
60d3867b6e7529fc77032b54,deo1t2g37l,"Mediated Recog Prolific",1,79,2023-05-08T21:20:54+00:00,7.1267549991608,5,versionC_stim.csv,ReadVersion_Recog.csv,"Read Recog",Read3,,CARD,RECOG,Presented,129,84,Likert,User,1,"Was this item previously studied?",CONTROL,Recog,1::2,6707,YES,0,-1,-1,0,0,,0.529
60d3867b6e7529fc77032b54,deo1t2g37l,"Mediated Recog Prolific",1,80,2023-05-08T21:21:02+00:00,7.3687779903412,5,versionC_stim.csv,ReadVersion_Recog.csv,"Read Recog",Read3,,ROD,RECOG,Presented,141,92,Likert,User,1,"Was this item previously studied?",CONTROL,Recog,1::2,5387,NO,40,-1,-1,0,0,,0.556
60d3867b6e7529fc77032b54,deo1t2g37l,"Mediated Recog Prolific",1,81,2023-05-08T21:21:09+00:00,7.3767988681793,5,versionC_stim.csv,ReadVersion_Recog.csv,"Read Recog",Read3,,BOUNCE,RECOG,Presented,108,108,Likert,User,1,"Was this item previously studied?",PRESENTED,Recog,1::2,6933,YES,22.222222222222,-1,-1,0,0,,0.486
60d3867b6e7529fc77032b54,deo1t2g37l,"Mediated Recog Prolific",1,82,2023-05-08T21:21:16+00:00,6.9928011894226,5,versionC_stim.csv,ReadVersion_Recog.csv,"Read Recog",Read3,,MUSCLE,RECOG,CONTROL,71,116,Likert,User,1,"Was this item previously studied?",PRESENTED,Recog,1::2,6512,NO,0,-1,-1,0,0,,0.485
60d3867b6e7529fc77032b54,deo1t2g37l,"Mediated Recog Prolific",1,83,2023-05-08T21:21:23+00:00,7.1588909626007,5,versionC_stim.csv,ReadVersion_Recog.csv,"Read Recog",Read3,,SMELL,RECOG,CONTROL,79,126,Likert,User,1,"Was this item previously studied?",PRESENTED,Recog,1::2,6742,NO,0,-1,-1,0,0,,0.5
60d3867b6e7529fc77032b54,deo1t2g37l,"Mediated Recog Prolific",1,84,2023-05-08T21:21:30+00:00,6.8608529567719,5,versionC_stim.csv,ReadVersion_Recog.csv,"Read Recog",Read3,,BIRD,RECOG,Presented,122,135,Likert,User,1,"Was this item previously studied?",PRESENTED,Recog,1::2,6451,YES,0,-1,-1,0,0,,0.485
60d3867b6e7529fc77032b54,deo1t2g37l,"Mediated Recog Prolific",1,85,2023-05-08T21:21:37+00:00,6.5406460762024,5,versionC_stim.csv,ReadVersion_Recog.csv,"Read Recog",Read3,,DARK,RECOG,Presented,114,69,Likert,User,1,"Was this item previously studied?",CONTROL,Recog,1::2,6055,YES,0,-1,-1,0,0,,0.581
60d3867b6e7529fc77032b54,deo1t2g37l,"Mediated Recog Prolific",1,86,2023-05-08T21:21:42+00:00,5.7506039142609,5,versionC_stim.csv,ReadVersion_Recog.csv,"Read Recog",Read3,,DRINK,RECOG,Presented,128,139,Likert,User,1,"Was this item previously studied?",PRESENTED,Recog,1::2,5283,YES,0,-1,-1,0,0,,0.556
60d3867b6e7529fc77032b54,deo1t2g37l,"Mediated Recog Prolific",1,87,2023-05-08T21:21:49+00:00,6.6896209716797,5,versionC_stim.csv,ReadVersion_Recog.csv,"Read Recog",Read3,,STRIPES,RECOG,Presented,102,85,Likert,User,1,"Was this item previously studied?",CONTROL,Recog,1::2,6230,NO,0,-1,-1,0,0,,0.531
60d3867b6e7529fc77032b54,deo1t2g37l,"Mediated Recog Prolific",1,88,2023-05-08T21:21:56+00:00,6.7960379123688,5,versionC_stim.csv,ReadVersion_Recog.csv,"Read Recog",Read3,,SLEEP,RECOG,Presented,125,115,Likert,User,1,"Was this item previously studied?",PRESENTED,Recog,1::2,6297,YES,25,-1,-1,0,0,,0.625
60d3867b6e7529fc77032b54,deo1t2g37l,"Mediated Recog Prolific",1,89,2023-05-08T21:22:03+00:00,6.9494850635529,5,versionC_stim.csv,ReadVersion_Recog.csv,"Read Recog",Read3,,HORN,RECOG,CONTROL,94,72,Likert,User,1,"Was this item previously studied?",CONTROL,Recog,1::2,6530,NO,33.333333333333,-1,-1,0,0,,0.576
60d3867b6e7529fc77032b54,deo1t2g37l,"Mediated Recog Prolific",1,90,2023-05-08T21:22:09+00:00,6.5832121372223,5,versionC_stim.csv,ReadVersion_Recog.csv,"Read Recog",Read3,,CARPET,RECOG,Presented,111,87,Likert,User,1,"Was this item previously studied?",CONTROL,Recog,1::2,6161,NO,0,-1,-1,0,0,,0.516
60d3867b6e7529fc77032b54,deo1t2g37l,"Mediated Recog Prolific",1,91,2023-05-08T21:22:15+00:00,5.8487768173218,5,versionC_stim.csv,ReadVersion_Recog.csv,"Read Recog",Read3,,SHAKE,RECOG,Presented,139,105,Likert,User,1,"Was this item previously studied?",PRESENTED,Recog,1::2,5376,NO,0,-1,-1,0,0,,0.481
60d3867b6e7529fc77032b54,deo1t2g37l,"Mediated Recog Prolific",1,92,2023-05-08T21:22:23+00:00,7.930183172226,5,versionC_stim.csv,ReadVersion_Recog.csv,"Read Recog",Read3,,OUNCE,RECOG,CONTROL,98,97,Likert,User,1,"Was this item previously studied?",CONTROL,Recog,1::2,7467,NO,28.571428571429,-1,-1,0,0,,0.5
60d3867b6e7529fc77032b54,deo1t2g37l,"Mediated Recog Prolific",1,93,2023-05-08T21:22:30+00:00,6.4304800033569,5,versionC_stim.csv,ReadVersion_Recog.csv,"Read Recog",Read3,,BRONZE,RECOG,CONTROL,99,103,Likert,User,1,"Was this item previously studied?",PRESENTED,Recog,1::2,5783,NO,25,-1,-1,0,0,,0.483
60d3867b6e7529fc77032b54,deo1t2g37l,"Mediated Recog Prolific",1,94,2023-05-08T21:22:36+00:00,6.821897983551,5,versionC_stim.csv,ReadVersion_Recog.csv,"Read Recog",Read3,,FINGER,RECOG,Presented,113,75,Likert,User,1,"Was this item previously studied?",CONTROL,Recog,1::2,6330,YES,22.222222222222,-1,-1,0,0,,0.469
60d3867b6e7529fc77032b54,deo1t2g37l,"Mediated Recog Prolific",1,95,2023-05-08T21:22:43+00:00,6.595489025116,5,versionC_stim.csv,ReadVersion_Recog.csv,"Read Recog",Read3,,HIDE,RECOG,CONTROL,96,68,Likert,User,1,"Was this item previously studied?",CONTROL,Recog,1::2,6143,NO,0,-1,-1,0,0,,0.516
60d3867b6e7529fc77032b54,deo1t2g37l,"Mediated Recog Prolific",1,96,2023-05-08T21:22:49+00:00,6.2409858703613,5,versionC_stim.csv,ReadVersion_Recog.csv,"Read Recog",Read3,,LEG,RECOG,CONTROL,101,138,Likert,User,1,"Was this item previously studied?",PRESENTED,Recog,1::2,5826,NO,0,-1,-1,0,0,,0.533
60d3867b6e7529fc77032b54,deo1t2g37l,"Mediated Recog Prolific",1,97,2023-05-08T21:22:56+00:00,6.5721800327301,5,versionC_stim.csv,ReadVersion_Recog.csv,"Read Recog",Read3,,HAIR,RECOG,Presented,115,90,Likert,User,1,"Was this item previously studied?",CONTROL,Recog,1::2,6079,YES,0,-1,-1,0,0,,0.548
60d3867b6e7529fc77032b54,deo1t2g37l,"Mediated Recog Prolific",1,98,2023-05-08T21:23:03+00:00,7.1868031024933,5,versionC_stim.csv,ReadVersion_Recog.csv,"Read Recog",Read3,,BUSINESS,RECOG,CONTROL,95,132,Likert,User,1,"Was this item previously studied?",PRESENTED,Recog,1::2,6760,NO,20,-1,-1,0,0,,0.529
60d3867b6e7529fc77032b54,deo1t2g37l,"Mediated Recog Prolific",1,99,2023-05-08T21:23:08+00:00,4.6450068950653,5,versionC_stim.csv,ReadVersion_Recog.csv,"Read Recog",Read3,,DONKEY,RECOG,Presented,126,82,Likert,User,1,"Was this item previously studied?",CONTROL,Recog,1::2,4231,YES,22.222222222222,-1,-1,0,0,,0.727
60d3867b6e7529fc77032b54,deo1t2g37l,"Mediated Recog Prolific",1,100,2023-05-08T21:23:15+00:00,7.5588219165802,5,versionC_stim.csv,ReadVersion_Recog.csv,"Read Recog",Read3,,BUG,RECOG,CONTROL,85,67,Likert,User,1,"Was this item previously studied?",CONTROL,Recog,1::2,7140,NO,0,-1,-1,0,0,,0.528
60d3867b6e7529fc77032b54,deo1t2g37l,"Mediated Recog Prolific",1,101,2023-05-08T21:23:20+00:00,4.6272611618042,5,versionC_stim.csv,ReadVersion_Recog.csv,"Read Recog",Read3,,DONKEY,RECOG,Presented,120,123,Likert,User,1,"Was this item previously studied?",PRESENTED,Recog,1::2,4190,YES,22.222222222222,-1,-1,0,0,,1
60d3867b6e7529fc77032b54,deo1t2g37l,"Mediated Recog Prolific",1,102,2023-05-08T21:23:27+00:00,7.5156018733978,5,versionC_stim.csv,ReadVersion_Recog.csv,"Read Recog",Read3,,DRINK,RECOG,CONTROL,63,121,Likert,User,1,"Was this item previously studied?",PRESENTED,Recog,1::2,5839,YES,0,-1,-1,0,0,,0.567
60d3867b6e7529fc77032b54,deo1t2g37l,"Mediated Recog Prolific",1,103,2023-05-08T21:23:34+00:00,6.7449221611023,5,versionC_stim.csv,ReadVersion_Recog.csv,"Read Recog",Read3,,BOTTLE,RECOG,Presented,112,133,Likert,User,1,"Was this item previously studied?",PRESENTED,Recog,1::2,6271,NO,25,-1,-1,0,0,,0.5
60d3867b6e7529fc77032b54,deo1t2g37l,"Mediated Recog Prolific",1,104,2023-05-08T21:23:40+00:00,6.3248298168182,5,versionC_stim.csv,ReadVersion_Recog.csv,"Read Recog",Read3,,SACK,RECOG,CONTROL,93,71,Likert,User,1,"Was this item previously studied?",CONTROL,Recog,1::2,5836,NO,0,-1,-1,0,0,,0.5
60d3867b6e7529fc77032b54,deo1t2g37l,"Mediated Recog Prolific",1,105,2023-05-08T21:23:47+00:00,6.5169670581818,5,versionC_stim.csv,ReadVersion_Recog.csv,"Read Recog",Read3,,FIGHT,RECOG,CONTROL,82,88,Likert,User,1,"Was this item previously studied?",CONTROL,Recog,1::2,6065,NO,0,-1,-1,0,0,,0.581
60d3867b6e7529fc77032b54,deo1t2g37l,"Mediated Recog Prolific",1,106,2023-05-08T21:23:57+00:00,9.6112740039825,5,versionC_stim.csv,ReadVersion_Recog.csv,"Read Recog",Read3,,CLOTH,RECOG,Presented,133,60,Likert,User,1,"Was this item previously studied?",CONTROL,Recog,1::2,9176,YES,0,-1,-1,0,0,,0.457
60d3867b6e7529fc77032b54,deo1t2g37l,"Mediated Recog Prolific",1,107,2023-05-08T21:24:04+00:00,7.5467901229858,5,versionC_stim.csv,ReadVersion_Recog.csv,"Read Recog",Read3,,CLUTTER,RECOG,CONTROL,92,131,Likert,User,1,"Was this item previously studied?",PRESENTED,Recog,1::2,7056,NO,0,-1,-1,0,0,,0.444
60d3867b6e7529fc77032b54,deo1t2g37l,"Mediated Recog Prolific",1,108,2023-05-08T21:24:11+00:00,7.0540199279785,5,versionC_stim.csv,ReadVersion_Recog.csv,"Read Recog",Read3,,SEED,RECOG,CONTROL,65,137,Likert,User,1,"Was this item previously studied?",PRESENTED,Recog,1::2,5627,NO,0,-1,-1,0,0,,0.552
60d3867b6e7529fc77032b54,deo1t2g37l,"Mediated Recog Prolific",1,109,2023-05-08T21:24:18+00:00,6.8290898799896,5,versionC_stim.csv,ReadVersion_Recog.csv,"Read Recog",Read3,,WOLF,RECOG,CONTROL,89,102,Likert,User,1,"Was this item previously studied?",PRESENTED,Recog,1::2,6363,NO,33.333333333333,-1,-1,0,0,,0.5
60d3867b6e7529fc77032b54,deo1t2g37l,"Mediated Recog Prolific",1,110,2023-05-08T21:24:25+00:00,7.1261291503906,5,versionC_stim.csv,ReadVersion_Recog.csv,"Read Recog",Read3,,WATER,RECOG,CONTROL,86,143,Likert,User,1,"Was this item previously studied?",PRESENTED,Recog,1::2,6655,NO,0,-1,-1,0,0,,0.471
60d3867b6e7529fc77032b54,deo1t2g37l,"Mediated Recog Prolific",1,111,2023-05-08T21:24:32+00:00,6.4288768768311,5,versionC_stim.csv,ReadVersion_Recog.csv,"Read Recog",Read3,,BELT,RECOG,Presented,142,134,Likert,User,1,"Was this item previously studied?",PRESENTED,Recog,1::2,5944,NO,0,-1,-1,0,0,,0.5
60d3867b6e7529fc77032b54,deo1t2g37l,"Mediated Recog Prolific",1,112,2023-05-08T21:24:40+00:00,8.1360120773315,5,versionC_stim.csv,ReadVersion_Recog.csv,"Read Recog",Read3,,THIGH,RECOG,CONTROL,68,104,Likert,User,1,"Was this item previously studied?",PRESENTED,Recog,1::2,7704,NO,0,-1,-1,0,0,,0.564
60d3867b6e7529fc77032b54,deo1t2g37l,"Mediated Recog Prolific",1,113,2023-05-08T21:24:46+00:00,6.3003740310669,5,versionC_stim.csv,ReadVersion_Recog.csv,"Read Recog",Read3,,PAPER,RECOG,CONTROL,78,70,Likert,User,1,"Was this item previously studied?",CONTROL,Recog,1::2,5858,NO,0,-1,-1,0,0,,0.5
60d3867b6e7529fc77032b54,deo1t2g37l,"Mediated Recog Prolific",1,114,2023-05-08T21:24:53+00:00,6.7580690383911,5,versionC_stim.csv,ReadVersion_Recog.csv,"Read Recog",Read3,,KNOB,RECOG,CONTROL,70,140,Likert,User,1,"Was this item previously studied?",PRESENTED,Recog,1::2,6291,NO,66.666666666667,-1,-1,0,0,,0.5
60d3867b6e7529fc77032b54,deo1t2g37l,"Mediated Recog Prolific",1,115,2023-05-08T21:24:57+00:00,4.1883718967438,5,versionC_stim.csv,ReadVersion_Recog.csv,"Read Recog",Read3,,FICTION,RECOG,Presented,140,98,Likert,User,1,"Was this item previously studied?",CONTROL,Recog,1::2,3720,YES,0,-1,-1,0,0,,1
60d3867b6e7529fc77032b54,deo1t2g37l,"Mediated Recog Prolific",1,116,2023-05-08T21:25:04+00:00,6.872220993042,5,versionC_stim.csv,ReadVersion_Recog.csv,"Read Recog",Read3,,BOX,RECOG,Presented,103,83,Likert,User,1,"Was this item previously studied?",CONTROL,Recog,1::2,6406,YES,0,-1,-1,0,0,,0.594
60d3867b6e7529fc77032b54,deo1t2g37l,"Mediated Recog Prolific",1,117,2023-05-08T21:25:10+00:00,6.2889430522919,5,versionC_stim.csv,ReadVersion_Recog.csv,"Read Recog",Read3,,HEAD,RECOG,Presented,119,128,Likert,User,1,"Was this item previously studied?",PRESENTED,Recog,1::2,5838,YES,28.571428571429,-1,-1,0,0,,0.533
60d3867b6e7529fc77032b54,deo1t2g37l,"Mediated Recog Prolific",1,118,2023-05-08T21:25:18+00:00,8.3400139808655,5,versionC_stim.csv,ReadVersion_Recog.csv,"Read Recog",Read3,,CAR,RECOG,CONTROL,88,120,Likert,User,1,"Was this item previously studied?",PRESENTED,Recog,1::2,7835,NO,0,-1,-1,0,0,,0.6
60d3867b6e7529fc77032b54,deo1t2g37l,"Mediated Recog Prolific",1,119,2023-05-08T21:25:25+00:00,6.3371438980103,5,versionC_stim.csv,ReadVersion_Recog.csv,"Read Recog",Read3,,BASKET,RECOG,CONTROL,67,101,Likert,User,1,"Was this item previously studied?",CONTROL,Recog,1::2,5833,NO,0,-1,-1,0,0,,0.448
60d3867b6e7529fc77032b54,deo1t2g37l,"Mediated Recog Prolific",1,120,2023-05-08T21:25:29+00:00,4.1760261058807,5,versionC_stim.csv,ReadVersion_Recog.csv,"Read Recog",Read3,,SILK,RECOG,Presented,106,86,Likert,User,1,"Was this item previously studied?",CONTROL,Recog,1::2,3737,YES,28.571428571429,-1,-1,0,0,,1
60d3867b6e7529fc77032b54,deo1t2g37l,"Mediated Recog Prolific",1,121,2023-05-08T21:25:34+00:00,5.4798059463501,5,versionC_stim.csv,ReadVersion_Recog.csv,"Read Recog",Read3,,KEYS,RECOG,Presented,137,129,Likert,User,1,"Was this item previously studied?",PRESENTED,Recog,1::2,4988,YES,57.142857142857,-1,-1,0,0,,0.72
60d3867b6e7529fc77032b54,deo1t2g37l,"Mediated Recog Prolific",1,122,2023-05-08T21:25:41+00:00,6.7264659404755,5,versionC_stim.csv,ReadVersion_Recog.csv,"Read Recog",Read3,,ELECTION,RECOG,Presented,135,141,Likert,User,1,"Was this item previously studied?",PRESENTED,Recog,1::2,6286,NO,20,-1,-1,0,0,,0.469
60d3867b6e7529fc77032b54,deo1t2g37l,"Mediated Recog Prolific",1,123,2023-05-08T21:25:47+00:00,6.051069021225,5,versionC_stim.csv,ReadVersion_Recog.csv,"Read Recog",Read3,,BASEBALL,RECOG,CONTROL,80,146,Likert,User,1,"Was this item previously studied?",PRESENTED,Recog,1::2,5583,NO,0,-1,-1,0,0,,0.464
60d3867b6e7529fc77032b54,deo1t2g37l,"Mediated Recog Prolific",1,124,2023-05-08T21:25:54+00:00,6.5848500728607,5,versionC_stim.csv,ReadVersion_Recog.csv,"Read Recog",Read3,,MONEY,RECOG,Presented,118,100,Likert,User,1,"Was this item previously studied?",CONTROL,Recog,1::2,6173,YES,25,-1,-1,0,0,,0.484
60d3867b6e7529fc77032b54,deo1t2g37l,"Mediated Recog Prolific",1,125,2023-05-08T21:26:00+00:00,6.4203789234161,5,versionC_stim.csv,ReadVersion_Recog.csv,"Read Recog",Read3,,CUT,RECOG,CONTROL,73,64,Likert,User,1,"Was this item previously studied?",CONTROL,Recog,1::2,5389,NO,0,-1,-1,0,0,,0.519
60d3867b6e7529fc77032b54,deo1t2g37l,"Mediated Recog Prolific",1,126,2023-05-08T21:26:07+00:00,6.5761561393738,5,versionC_stim.csv,ReadVersion_Recog.csv,"Read Recog",Read3,,STOP,RECOG,CONTROL,58,80,Likert,User,1,"Was this item previously studied?",CONTROL,Recog,1::2,6033,NO,33.333333333333,-1,-1,0,0,,0.484
60d3867b6e7529fc77032b54,deo1t2g37l,"Mediated Recog Prolific",1,127,2023-05-08T21:26:14+00:00,6.8282108306885,5,versionC_stim.csv,ReadVersion_Recog.csv,"Read Recog",Read3,,MORNING,RECOG,Presented,144,109,Likert,User,1,"Was this item previously studied?",PRESENTED,Recog,1::2,6378,YES,0,-1,-1,0,0,,0.469
60d3867b6e7529fc77032b54,deo1t2g37l,"Mediated Recog Prolific",1,128,2023-05-08T21:26:21+00:00,7.6553292274475,5,versionC_stim.csv,ReadVersion_Recog.csv,"Read Recog",Read3,,STING,RECOG,CONTROL,81,73,Likert,User,1,"Was this item previously studied?",CONTROL,Recog,1::2,7200,NO,28.571428571429,-1,-1,0,0,,0.444
60d3867b6e7529fc77032b54,deo1t2g37l,"Mediated Recog Prolific",1,129,2023-05-08T21:26:28+00:00,7.1486749649048,5,versionC_stim.csv,ReadVersion_Recog.csv,"Read Recog",Read3,,CHILDREN,RECOG,CONTROL,100,62,Likert,User,1,"Was this item previously studied?",CONTROL,Recog,1::2,6695,NO,20,-1,-1,0,0,,0.471
60d3867b6e7529fc77032b54,deo1t2g37l,"Mediated Recog Prolific",1,130,2023-05-08T21:26:35+00:00,6.5526390075684,5,versionC_stim.csv,ReadVersion_Recog.csv,"Read Recog",Read3,,CLOTHES,RECOG,CONTROL,75,63,Likert,User,1,"Was this item previously studied?",CONTROL,Recog,1::2,6140,NO,22.222222222222,-1,-1,0,0,,0.484
60d3867b6e7529fc77032b54,deo1t2g37l,"Mediated Recog Prolific",1,131,2023-05-08T21:26:41+00:00,6.5461518764496,5,versionC_stim.csv,ReadVersion_Recog.csv,"Read Recog",Read3,,FISH,RECOG,Presented,131,58,Likert,User,1,"Was this item previously studied?",CONTROL,Recog,1::2,6135,YES,28.571428571429,-1,-1,0,0,,0.484
60d3867b6e7529fc77032b54,deo1t2g37l,"Mediated Recog Prolific",1,132,2023-05-08T21:26:48+00:00,6.3722310066223,5,versionC_stim.csv,ReadVersion_Recog.csv,"Read Recog",Read3,,HAND,RECOG,Presented,145,127,Likert,User,1,"Was this item previously studied?",PRESENTED,Recog,1::2,5915,YES,0,-1,-1,0,0,,0.5
60d3867b6e7529fc77032b54,deo1t2g37l,"Mediated Recog Prolific",1,133,2023-05-08T21:26:54+00:00,6.5590319633484,5,versionC_stim.csv,ReadVersion_Recog.csv,"Read Recog",Read3,,COLLAR,RECOG,CONTROL,59,93,Likert,User,1,"Was this item previously studied?",CONTROL,Recog,1::2,6145,NO,25,-1,-1,0,0,,0.484
60d3867b6e7529fc77032b54,deo1t2g37l,"Mediated Recog Prolific",1,134,2023-05-08T21:27:00+00:00,5.7097520828247,5,versionC_stim.csv,ReadVersion_Recog.csv,"Read Recog",Read3,,ACCIDENT,RECOG,CONTROL,90,119,Likert,User,1,"Was this item previously studied?",PRESENTED,Recog,1::2,5251,NO,20,-1,-1,0,0,,0.444
60d3867b6e7529fc77032b54,deo1t2g37l,"Mediated Recog Prolific",1,135,2023-05-08T21:27:06+00:00,5.9310219287872,5,versionC_stim.csv,ReadVersion_Recog.csv,"Read Recog",Read3,,VASE,RECOG,CONTROL,87,144,Likert,User,1,"Was this item previously studied?",PRESENTED,Recog,1::2,5513,NO,0,-1,-1,0,0,,0.536
60d3867b6e7529fc77032b54,deo1t2g37l,"Mediated Recog Prolific",1,136,2023-05-08T21:27:12+00:00,6.1471791267395,5,versionC_stim.csv,ReadVersion_Recog.csv,"Read Recog",Read3,,RIDDLE,RECOG,CONTROL,91,118,Likert,User,1,"Was this item previously studied?",PRESENTED,Recog,1::2,5665,NO,0,-1,-1,0,0,,0.483
60d3867b6e7529fc77032b54,deo1t2g37l,"Mediated Recog Prolific",1,137,2023-05-08T21:27:20+00:00,7.3068249225616,5,versionC_stim.csv,ReadVersion_Recog.csv,"Read Recog",Read3,,PEAK,RECOG,CONTROL,69,136,Likert,User,1,"Was this item previously studied?",PRESENTED,Recog,1::2,6869,NO,0,-1,-1,0,0,,0.543
60d3867b6e7529fc77032b54,deo1t2g37l,"Mediated Recog Prolific",1,138,2023-05-08T21:27:26+00:00,6.6247129440308,5,versionC_stim.csv,ReadVersion_Recog.csv,"Read Recog",Read3,,SNOW,RECOG,CONTROL,57,114,Likert,User,1,"Was this item previously studied?",PRESENTED,Recog,1::2,6210,NO,66.666666666667,-1,-1,0,0,,0.594
60d3867b6e7529fc77032b54,deo1t2g37l,"Mediated Recog Prolific",1,139,2023-05-08T21:27:32+00:00,6.2076499462128,5,versionC_stim.csv,ReadVersion_Recog.csv,"Read Recog",Read3,,COW,RECOG,CONTROL,84,96,Likert,User,1,"Was this item previously studied?",CONTROL,Recog,1::2,5703,NO,40,-1,-1,0,0,,0.552
60d3867b6e7529fc77032b54,deo1t2g37l,"Mediated Recog Prolific",1,140,2023-05-08T21:27:39+00:00,6.2077851295471,5,versionC_stim.csv,ReadVersion_Recog.csv,"Read Recog",Read3,,QUIET,RECOG,Presented,104,110,Likert,User,1,"Was this item previously studied?",PRESENTED,Recog,1::2,5777,YES,25,-1,-1,0,0,,0.517
60d3867b6e7529fc77032b54,deo1t2g37l,"Mediated Recog Prolific",1,141,2023-05-08T21:27:48+00:00,9.6913149356842,5,versionC_stim.csv,ReadVersion_Recog.csv,"Read Recog",Read3,,MAROON,RECOG,Presented,132,112,Likert,User,1,"Was this item previously studied?",PRESENTED,Recog,1::2,9150,YES,0,-1,-1,0,0,,0.457
60d3867b6e7529fc77032b54,deo1t2g37l,"Mediated Recog Prolific",1,142,2023-05-08T21:27:55+00:00,6.9508731365204,5,versionC_stim.csv,ReadVersion_Recog.csv,"Read Recog",Read3,,STEAK,RECOG,Presented,134,142,Likert,User,1,"Was this item previously studied?",PRESENTED,Recog,1::2,6522,YES,25,-1,-1,0,0,,0.545
60d3867b6e7529fc77032b54,deo1t2g37l,"Mediated Recog Prolific",1,143,2023-05-08T21:28:02+00:00,7.2627608776093,5,versionC_stim.csv,ReadVersion_Recog.csv,"Read Recog",Read3,,SENTENCE,RECOG,Presented,123,113,Likert,User,1,"Was this item previously studied?",PRESENTED,Recog,1::2,6229,YES,18.181818181818,-1,-1,0,0,,0.531
60d3867b6e7529fc77032b54,deo1t2g37l,"Mediated Recog Prolific",1,144,2023-05-08T21:28:08+00:00,5.1707451343536,5,versionC_stim.csv,ReadVersion_Recog.csv,"Read Recog",Read3,,SMELL,RECOG,CONTROL,61,61,Likert,User,1,"Was this item previously studied?",CONTROL,Recog,1::2,4656,NO,0,-1,-1,0,0,,0.583
60d3867b6e7529fc77032b54,deo1t2g37l,"Mediated Recog Prolific",1,145,2023-05-08T21:28:11+00:00,3.3027808666229,5,versionC_stim.csv,ReadVersion_Recog.csv,"Read Recog",Read3,,LAWYER,RECOG,CONTROL,62,79,Likert,User,1,"Was this item previously studied?",CONTROL,Recog,1::2,2870,NO,0,-1,-1,0,0,,1
60d3867b6e7529fc77032b54,deo1t2g37l,"Mediated Recog Prolific",1,146,2023-05-08T21:28:19+00:00,7.5760610103607,5,versionC_stim.csv,ReadVersion_Recog.csv,"Read Recog",Read3,,FIRE,RECOG,CONTROL,77,94,Likert,User,1,"Was this item previously studied?",CONTROL,Recog,1::2,7120,NO,0,-1,-1,0,0,,0.361
60d3867b6e7529fc77032b54,deo1t2g37l,"Mediated Recog Prolific",1,147,2023-05-08T21:28:25+00:00,6.5640580654144,5,versionC_stim.csv,ReadVersion_Recog.csv,"Read Recog",Read3,,CHARM,RECOG,Presented,136,124,Likert,User,1,"Was this item previously studied?",PRESENTED,Recog,1::2,6068,NO,0,-1,-1,0,0,,0.548
60d3867b6e7529fc77032b54,deo1t2g37l,"Mediated Recog Prolific",1,148,2023-05-08T21:28:33+00:00,7.8305130004883,5,versionC_stim.csv,ReadVersion_Recog.csv,"Read Recog",Read3,,FEATHER,RECOG,CONTROL,64,99,Likert,User,1,"Was this item previously studied?",CONTROL,Recog,1::2,7352,NO,0,-1,-1,0,0,,0.405
60d3867b6e7529fc77032b54,deo1t2g37l,"Mediated Recog Prolific",1,149,2023-05-08T21:28:37+00:00,4.0036990642548,5,versionC_stim.csv,ReadVersion_Recog.csv,"Read Recog",Read3,,CLEAN,RECOG,Presented,124,66,Likert,User,1,"Was this item previously studied?",CONTROL,Recog,1::2,3519,YES,25,-1,-1,0,0,,1
60d3867b6e7529fc77032b54,deo1t2g37l,"Mediated Recog Prolific",1,150,2023-05-08T21:28:45+00:00,7.6843359470367,5,versionC_stim.csv,ReadVersion_Recog.csv,"Read Recog",Read3,,ISLAND,RECOG,CONTROL,60,122,Likert,User,1,"Was this item previously studied?",PRESENTED,Recog,1::2,7185,NO,25,-1,-1,0,0,,0.389
60d3867b6e7529fc77032b54,deo1t2g37l,"Mediated Recog Prolific",1,151,2023-05-08T21:28:46+00:00,1.8057079315186,5,versionC_stim.csv,ReadVersion_Recog.csv,"Read Recog",Read3,,,,,,0,Instruct,User,-,"You have completed this section. Please press Enter.",,Instruct7,,1376,,,-1,-1,,,,1
60d3867b6e7529fc77032b54,deo1t2g37l,"Mediated Recog Prolific",1,152,2023-05-08T21:28:49+00:00,2.3842921257019,5,versionC_stim.csv,ReadVersion_Recog.csv,"Read Recog",Read3,,,,,,0,Instruct,User,-,"The following screen will ask you a few questions abour your experience today. You must complete these questions to receive credit.",,Instruct8,,1874,,,-1,-1,,,,1
