Username,ID,ExperimentName,Session,Trial,Date,TimeDif,"Condition Number","Stimuli File","Order File","Condition Description","Condition Notes",Stimuli*Cue,Stimuli*Answer,Stimuli*Shuffle,"Stimuli*Stimuli Notes",Stimuli*Value,Procedure*Item,"Procedure*Trial Type","Procedure*Max Time","Procedure*Min Time",Procedure*Text,"Procedure*Procedure Notes",Procedure*Shuffle,Procedure*,Response*RT,Response*Response,Response*Accuracy,Response*RTfirst,Response*RTlast,Response*strictAcc,Response*lenientAcc,Response*focus,Response*Focus
62b3491fc3790d748d09dc12,vytsmunep4,"Mediated Recog Prolific",1,1,2023-05-08T21:28:49+00:00,6.9774241447449,7,versionD_stim.csv,ReadVersion_Recog.csv,"Read Recog",Read4,,,,,,0,Instruct,-,5,"In this section, you will be presented with a series of word pairs. Please study each word pair! Your memory will be tested!",Initial_Instruct,Instruct1,,6023,,,-1,-1,,,,1
62b3491fc3790d748d09dc12,vytsmunep4,"Mediated Recog Prolific",1,2,2023-05-08T21:28:53+00:00,4.1963908672333,7,versionD_stim.csv,ReadVersion_Recog.csv,"Read Recog",Read4,,,,,,0,Instruct,User,-,"You will now begin. Press Enter when you are ready to begin.",,Instruct16,,3101,,,-1,-1,,,,1
62b3491fc3790d748d09dc12,vytsmunep4,"Mediated Recog Prolific",1,3,2023-05-08T21:28:57+00:00,3.7704420089722,7,versionD_stim.csv,ReadVersion_Recog.csv,"Read Recog",Read4,MONTH,YEAR,BUFFER3,Buffer,2,4,Study,User,-,,Study/JOL,BUFFER,,3077,,,-1,-1,,,,1
62b3491fc3790d748d09dc12,vytsmunep4,"Mediated Recog Prolific",1,4,2023-05-08T21:29:04+00:00,6.8816311359406,7,versionD_stim.csv,ReadVersion_Recog.csv,"Read Recog",Read4,OCTOBER,SPOOKY,BUFFER3,Buffer,5,3,Study,User,-,,Study/JOL,BUFFER,,5538,,,-1,-1,,,,1
62b3491fc3790d748d09dc12,vytsmunep4,"Mediated Recog Prolific",1,5,2023-05-08T21:29:07+00:00,3.6408100128174,7,versionD_stim.csv,ReadVersion_Recog.csv,"Read Recog",Read4,DAYS,WEAKS,BUFFER3,Buffer,1,6,Study,User,-,,Study/JOL,BUFFER,,2735,,,-1,-1,,,,1
62b3491fc3790d748d09dc12,vytsmunep4,"Mediated Recog Prolific",1,6,2023-05-08T21:29:21+00:00,13.844303846359,7,versionD_stim.csv,ReadVersion_Recog.csv,"Read Recog",Read4,SPRING,MARCH,BUFFER3,Buffer,4,5,Study,User,-,,Study/JOL,BUFFER,,12799,,,-1,-1,,,,0.435
62b3491fc3790d748d09dc12,vytsmunep4,"Mediated Recog Prolific",1,7,2023-05-08T21:29:24+00:00,2.9345381259918,7,versionD_stim.csv,ReadVersion_Recog.csv,"Read Recog",Read4,TOOL,SHED,BUFFER3,Buffer,3,2,Study,User,-,,Study/JOL,BUFFER,,2131,,,-1,-1,,,,1
62b3491fc3790d748d09dc12,vytsmunep4,"Mediated Recog Prolific",1,8,2023-05-08T21:29:31+00:00,6.6902749538422,7,versionD_stim.csv,ReadVersion_Recog.csv,"Read Recog",Read4,CHILL,COLD,Study2,F,32,22,Study,User,-,,Study/JOL,"Study Phase",,5258,,,-1,-1,,,,0.538
62b3491fc3790d748d09dc12,vytsmunep4,"Mediated Recog Prolific",1,9,2023-05-08T21:29:35+00:00,4.0374090671539,7,versionD_stim.csv,ReadVersion_Recog.csv,"Read Recog",Read4,WINDOW,KNOB,Study2,M,19,39,Study,User,-,,Study/JOL,"Study Phase",,3031,,,-1,-1,,,,1
62b3491fc3790d748d09dc12,vytsmunep4,"Mediated Recog Prolific",1,10,2023-05-08T21:29:39+00:00,3.7439479827881,7,versionD_stim.csv,ReadVersion_Recog.csv,"Read Recog",Read4,GRILL,THIGH,Study2,M,17,34,Study,User,-,,Study/JOL,"Study Phase",,2867,,,-1,-1,,,,1
62b3491fc3790d748d09dc12,vytsmunep4,"Mediated Recog Prolific",1,11,2023-05-08T21:29:47+00:00,8.3013868331909,7,versionD_stim.csv,ReadVersion_Recog.csv,"Read Recog",Read4,CHOP,CUT,Study2,F,22,18,Study,User,-,,Study/JOL,"Study Phase",,7156,,,-1,-1,,,,0.429
62b3491fc3790d748d09dc12,vytsmunep4,"Mediated Recog Prolific",1,12,2023-05-08T21:29:51+00:00,3.7013511657715,7,versionD_stim.csv,ReadVersion_Recog.csv,"Read Recog",Read4,NURSE,LAWYER,Study2,M,11,26,Study,User,-,,Study/JOL,"Study Phase",,2711,,,-1,-1,,,,1
62b3491fc3790d748d09dc12,vytsmunep4,"Mediated Recog Prolific",1,13,2023-05-08T21:29:58+00:00,6.9152050018311,7,versionD_stim.csv,ReadVersion_Recog.csv,"Read Recog",Read4,CASH,LEG,Study2,U,50,19,Study,User,-,,Study/JOL,"Study Phase",,5727,,,-1,-1,,,,0.724
62b3491fc3790d748d09dc12,vytsmunep4,"Mediated Recog Prolific",1,14,2023-05-08T21:30:02+00:00,4.1775379180908,7,versionD_stim.csv,ReadVersion_Recog.csv,"Read Recog",Read4,ATTIRE,CLOTHES,Study2,F,24,42,Study,User,-,,Study/JOL,"Study Phase",,2419,,,-1,-1,,,,1
62b3491fc3790d748d09dc12,vytsmunep4,"Mediated Recog Prolific",1,15,2023-05-08T21:30:07+00:00,5.1528949737549,7,versionD_stim.csv,ReadVersion_Recog.csv,"Read Recog",Read4,SUGAR,RIDDLE,Study2,U,40,27,Study,User,-,,Study/JOL,"Study Phase",,4328,,,-1,-1,,,,0.5
62b3491fc3790d748d09dc12,vytsmunep4,"Mediated Recog Prolific",1,16,2023-05-08T21:30:10+00:00,3.4007389545441,7,versionD_stim.csv,ReadVersion_Recog.csv,"Read Recog",Read4,ART,WOLF,Study2,U,38,21,Study,User,-,,Study/JOL,"Study Phase",,2349,,,-1,-1,,,,1
62b3491fc3790d748d09dc12,vytsmunep4,"Mediated Recog Prolific",1,17,2023-05-08T21:30:13+00:00,2.7842891216278,7,versionD_stim.csv,ReadVersion_Recog.csv,"Read Recog",Read4,BRIDGE,WATER,Study2,F,35,36,Study,User,-,,Study/JOL,"Study Phase",,2030,,,-1,-1,,,,1
62b3491fc3790d748d09dc12,vytsmunep4,"Mediated Recog Prolific",1,18,2023-05-08T21:30:16+00:00,2.7548410892487,7,versionD_stim.csv,ReadVersion_Recog.csv,"Read Recog",Read4,DIETARY,SACK,Study2,U,42,46,Study,User,-,,Study/JOL,"Study Phase",,1974,,,-1,-1,,,,1
62b3491fc3790d748d09dc12,vytsmunep4,"Mediated Recog Prolific",1,19,2023-05-08T21:30:18+00:00,2.2738318443298,7,versionD_stim.csv,ReadVersion_Recog.csv,"Read Recog",Read4,BENCH,HORN,Study2,U,43,23,Study,User,-,,Study/JOL,"Study Phase",,1491,,,-1,-1,,,,1
62b3491fc3790d748d09dc12,vytsmunep4,"Mediated Recog Prolific",1,20,2023-05-08T21:30:23+00:00,4.9774980545044,7,versionD_stim.csv,ReadVersion_Recog.csv,"Read Recog",Read4,HAPPY,CAR,Study2,U,37,40,Study,User,-,,Study/JOL,"Study Phase",,4040,,,-1,-1,,,,0.5
62b3491fc3790d748d09dc12,vytsmunep4,"Mediated Recog Prolific",1,21,2023-05-08T21:30:26+00:00,3.0869998931885,7,versionD_stim.csv,ReadVersion_Recog.csv,"Read Recog",Read4,PUSH,CLUTTER,Study2,U,41,35,Study,User,-,,Study/JOL,"Study Phase",,2300,,,-1,-1,,,,1
62b3491fc3790d748d09dc12,vytsmunep4,"Mediated Recog Prolific",1,22,2023-05-08T21:30:37+00:00,10.549523115158,7,versionD_stim.csv,ReadVersion_Recog.csv,"Read Recog",Read4,BLAZE,FIRE,Study2,F,26,24,Study,User,-,,Study/JOL,"Study Phase",,8783,,,-1,-1,,,,0.698
62b3491fc3790d748d09dc12,vytsmunep4,"Mediated Recog Prolific",1,23,2023-05-08T21:30:41+00:00,4.2057499885559,7,versionD_stim.csv,ReadVersion_Recog.csv,"Read Recog",Read4,PANTS,COLLAR,Study2,M,8,7,Study,User,-,,Study/JOL,"Study Phase",,3169,,,-1,-1,,,,1
62b3491fc3790d748d09dc12,vytsmunep4,"Mediated Recog Prolific",1,24,2023-05-08T21:30:49+00:00,7.8186058998108,7,versionD_stim.csv,ReadVersion_Recog.csv,"Read Recog",Read4,DEATH,BUSINESS,Study2,U,44,44,Study,User,-,,Study/JOL,"Study Phase",,5751,,,-1,-1,,,,0.607
62b3491fc3790d748d09dc12,vytsmunep4,"Mediated Recog Prolific",1,25,2023-05-08T21:30:55+00:00,6.1666450500488,7,versionD_stim.csv,ReadVersion_Recog.csv,"Read Recog",Read4,MIRROR,CHILDREN,Study2,U,49,38,Study,User,-,,Study/JOL,"Study Phase",,4014,,,-1,-1,,,,1
62b3491fc3790d748d09dc12,vytsmunep4,"Mediated Recog Prolific",1,26,2023-05-08T21:31:00+00:00,4.714427947998,7,versionD_stim.csv,ReadVersion_Recog.csv,"Read Recog",Read4,FEUD,FIGHT,Study2,F,31,25,Study,User,-,,Study/JOL,"Study Phase",,2445,,,-1,-1,,,,1
62b3491fc3790d748d09dc12,vytsmunep4,"Mediated Recog Prolific",1,27,2023-05-08T21:31:10+00:00,9.9700880050659,7,versionD_stim.csv,ReadVersion_Recog.csv,"Read Recog",Read4,VALLEY,PEAK,Study2,M,18,9,Study,User,-,,Study/JOL,"Study Phase",,6155,,,-1,-1,,,,1
62b3491fc3790d748d09dc12,vytsmunep4,"Mediated Recog Prolific",1,28,2023-05-08T21:31:18+00:00,7.946928024292,7,versionD_stim.csv,ReadVersion_Recog.csv,"Read Recog",Read4,INCENSE,SMELL,Study2,F,28,11,Study,User,-,,Study/JOL,"Study Phase",,7091,,,-1,-1,,,,0.629
62b3491fc3790d748d09dc12,vytsmunep4,"Mediated Recog Prolific",1,29,2023-05-08T21:31:20+00:00,2.645416021347,7,versionD_stim.csv,ReadVersion_Recog.csv,"Read Recog",Read4,ARTERY,BRONZE,Study2,U,48,31,Study,User,-,,Study/JOL,"Study Phase",,1605,,,-1,-1,,,,1
62b3491fc3790d748d09dc12,vytsmunep4,"Mediated Recog Prolific",1,30,2023-05-08T21:31:27+00:00,6.6658580303192,7,versionD_stim.csv,ReadVersion_Recog.csv,"Read Recog",Read4,RAKE,SEED,Study2,M,14,17,Study,User,-,,Study/JOL,"Study Phase",,5236,,,-1,-1,,,,0.538
62b3491fc3790d748d09dc12,vytsmunep4,"Mediated Recog Prolific",1,31,2023-05-08T21:31:29+00:00,2.2320280075073,7,versionD_stim.csv,ReadVersion_Recog.csv,"Read Recog",Read4,TRAP,CAVE,Study2,M,15,29,Study,User,-,,Study/JOL,"Study Phase",,1377,,,-1,-1,,,,1
62b3491fc3790d748d09dc12,vytsmunep4,"Mediated Recog Prolific",1,32,2023-05-08T21:31:36+00:00,6.7251629829407,7,versionD_stim.csv,ReadVersion_Recog.csv,"Read Recog",Read4,SICK,HIDE,Study2,U,45,43,Study,User,-,,Study/JOL,"Study Phase",,5697,,,-1,-1,,,,0.643
62b3491fc3790d748d09dc12,vytsmunep4,"Mediated Recog Prolific",1,33,2023-05-08T21:31:38+00:00,2.5606510639191,7,versionD_stim.csv,ReadVersion_Recog.csv,"Read Recog",Read4,BOTH,OUNCE,Study2,U,47,15,Study,User,-,,Study/JOL,"Study Phase",,1412,,,-1,-1,,,,1
62b3491fc3790d748d09dc12,vytsmunep4,"Mediated Recog Prolific",1,34,2023-05-08T21:31:45+00:00,6.371337890625,7,versionD_stim.csv,ReadVersion_Recog.csv,"Read Recog",Read4,WASP,BUG,Study2,F,34,28,Study,User,-,,Study/JOL,"Study Phase",,4880,,,-1,-1,,,,0.708
62b3491fc3790d748d09dc12,vytsmunep4,"Mediated Recog Prolific",1,35,2023-05-08T21:31:48+00:00,3.4232490062714,7,versionD_stim.csv,ReadVersion_Recog.csv,"Read Recog",Read4,RAZOR,MUSCLE,Study2,M,20,16,Study,User,-,,Study/JOL,"Study Phase",,2409,,,-1,-1,,,,1
62b3491fc3790d748d09dc12,vytsmunep4,"Mediated Recog Prolific",1,36,2023-05-08T21:31:52+00:00,3.4068810939789,7,versionD_stim.csv,ReadVersion_Recog.csv,"Read Recog",Read4,REALITY,ISLAND,Study2,M,9,32,Study,User,-,,Study/JOL,"Study Phase",,2384,,,-1,-1,,,,1
62b3491fc3790d748d09dc12,vytsmunep4,"Mediated Recog Prolific",1,37,2023-05-08T21:31:57+00:00,5.1316368579865,7,versionD_stim.csv,ReadVersion_Recog.csv,"Read Recog",Read4,HORNET,STING,Study2,F,30,48,Study,User,-,,Study/JOL,"Study Phase",,4369,,,-1,-1,,,,0.727
62b3491fc3790d748d09dc12,vytsmunep4,"Mediated Recog Prolific",1,38,2023-05-08T21:32:03+00:00,6.1424441337585,7,versionD_stim.csv,ReadVersion_Recog.csv,"Read Recog",Read4,LEAGUE,BASEBALL,Study2,F,29,13,Study,User,-,,Study/JOL,"Study Phase",,4967,,,-1,-1,,,,0.68
62b3491fc3790d748d09dc12,vytsmunep4,"Mediated Recog Prolific",1,39,2023-05-08T21:32:06+00:00,3.399482011795,7,versionD_stim.csv,ReadVersion_Recog.csv,"Read Recog",Read4,LEASE,TOIL,Study2,U,46,50,Study,User,-,,Study/JOL,"Study Phase",,2508,,,-1,-1,,,,1
62b3491fc3790d748d09dc12,vytsmunep4,"Mediated Recog Prolific",1,40,2023-05-08T21:32:09+00:00,3.1635930538177,7,versionD_stim.csv,ReadVersion_Recog.csv,"Read Recog",Read4,STRONG,ACCIDENT,Study2,U,39,30,Study,User,-,,Study/JOL,"Study Phase",,2394,,,-1,-1,,,,1
62b3491fc3790d748d09dc12,vytsmunep4,"Mediated Recog Prolific",1,41,2023-05-08T21:32:13+00:00,3.758759021759,7,versionD_stim.csv,ReadVersion_Recog.csv,"Read Recog",Read4,CHERRY,RED,Study2,F,25,8,Study,User,-,,Study/JOL,"Study Phase",,2948,,,-1,-1,,,,1
62b3491fc3790d748d09dc12,vytsmunep4,"Mediated Recog Prolific",1,42,2023-05-08T21:32:21+00:00,7.294900894165,7,versionD_stim.csv,ReadVersion_Recog.csv,"Read Recog",Read4,HERD,COW,Study2,F,33,51,Study,User,-,,Study/JOL,"Study Phase",,5103,,,-1,-1,,,,0.808
62b3491fc3790d748d09dc12,vytsmunep4,"Mediated Recog Prolific",1,43,2023-05-08T21:32:25+00:00,4.4189970493317,7,versionD_stim.csv,ReadVersion_Recog.csv,"Read Recog",Read4,EYES,SMELL,Study2,M,10,41,Study,User,-,,Study/JOL,"Study Phase",,3182,,,-1,-1,,,,1
62b3491fc3790d748d09dc12,vytsmunep4,"Mediated Recog Prolific",1,44,2023-05-08T21:32:32+00:00,7.4550058841705,7,versionD_stim.csv,ReadVersion_Recog.csv,"Read Recog",Read4,CHISEL,HAMMER,Study2,F,23,33,Study,User,-,,Study/JOL,"Study Phase",,5884,,,-1,-1,,,,1
62b3491fc3790d748d09dc12,vytsmunep4,"Mediated Recog Prolific",1,45,2023-05-08T21:32:43+00:00,10.521625995636,7,versionD_stim.csv,ReadVersion_Recog.csv,"Read Recog",Read4,HEAVY,FEATHER,Study2,M,13,47,Study,User,-,,Study/JOL,"Study Phase",,9586,,,-1,-1,,,,0.872
62b3491fc3790d748d09dc12,vytsmunep4,"Mediated Recog Prolific",1,46,2023-05-08T21:32:46+00:00,2.5882999897003,7,versionD_stim.csv,ReadVersion_Recog.csv,"Read Recog",Read4,SCHOOL,STOP,Study2,M,7,14,Study,User,-,,Study/JOL,"Study Phase",,1618,,,-1,-1,,,,1
62b3491fc3790d748d09dc12,vytsmunep4,"Mediated Recog Prolific",1,47,2023-05-08T21:32:56+00:00,10.451565980911,7,versionD_stim.csv,ReadVersion_Recog.csv,"Read Recog",Read4,OVEN,BASKET,Study2,M,16,49,Study,User,-,,Study/JOL,"Study Phase",,3437,,,-1,-1,,,,1
62b3491fc3790d748d09dc12,vytsmunep4,"Mediated Recog Prolific",1,48,2023-05-08T21:33:01+00:00,4.7802941799164,7,versionD_stim.csv,ReadVersion_Recog.csv,"Read Recog",Read4,SUMMER,SNOW,Study2,M,6,12,Study,User,-,,Study/JOL,"Study Phase",,3918,,,-1,-1,,,,0.65
62b3491fc3790d748d09dc12,vytsmunep4,"Mediated Recog Prolific",1,49,2023-05-08T21:33:03+00:00,2.3174829483032,7,versionD_stim.csv,ReadVersion_Recog.csv,"Read Recog",Read4,CACTUS,PLANT,Study2,F,21,37,Study,User,-,,Study/JOL,"Study Phase",,1533,,,-1,-1,,,,1
62b3491fc3790d748d09dc12,vytsmunep4,"Mediated Recog Prolific",1,50,2023-05-08T21:33:06+00:00,3.3135528564453,7,versionD_stim.csv,ReadVersion_Recog.csv,"Read Recog",Read4,KING,VASE,Study2,U,36,45,Study,User,-,,Study/JOL,"Study Phase",,2633,,,-1,-1,,,,1
62b3491fc3790d748d09dc12,vytsmunep4,"Mediated Recog Prolific",1,51,2023-05-08T21:33:12+00:00,6.0699920654297,7,versionD_stim.csv,ReadVersion_Recog.csv,"Read Recog",Read4,DOCUMENT,PAPER,Study2,F,27,10,Study,User,-,,Study/JOL,"Study Phase",,4970,,,-1,-1,,,,1
62b3491fc3790d748d09dc12,vytsmunep4,"Mediated Recog Prolific",1,52,2023-05-08T21:33:17+00:00,4.7161779403687,7,versionD_stim.csv,ReadVersion_Recog.csv,"Read Recog",Read4,SOAP,DRINK,Study2,M,12,20,Study,User,-,,Study/JOL,"Study Phase",,2978,,,-1,-1,,,,1
62b3491fc3790d748d09dc12,vytsmunep4,"Mediated Recog Prolific",1,53,2023-05-08T21:33:21+00:00,4.1164281368256,7,versionD_stim.csv,ReadVersion_Recog.csv,"Read Recog",Read4,CAMP,ADVENTURE,BUFFER4,Buffer,55,52,Study,User,-,,Study/JOL,BUFFER2,,3157,,,-1,-1,,,,1
62b3491fc3790d748d09dc12,vytsmunep4,"Mediated Recog Prolific",1,54,2023-05-08T21:33:30+00:00,8.8184299468994,7,versionD_stim.csv,ReadVersion_Recog.csv,"Read Recog",Read4,ICE,FROZEN,BUFFER4,Buffer,54,55,Study,User,-,,Study/JOL,BUFFER2,,7809,,,-1,-1,,,,0.718
62b3491fc3790d748d09dc12,vytsmunep4,"Mediated Recog Prolific",1,55,2023-05-08T21:33:34+00:00,4.0142929553986,7,versionD_stim.csv,ReadVersion_Recog.csv,"Read Recog",Read4,NOODLE,STRING,BUFFER4,Buffer,52,56,Study,User,-,,Study/JOL,BUFFER2,,1199,,,-1,-1,,,,1
62b3491fc3790d748d09dc12,vytsmunep4,"Mediated Recog Prolific",1,56,2023-05-08T21:33:37+00:00,3.3770110607147,7,versionD_stim.csv,ReadVersion_Recog.csv,"Read Recog",Read4,CARROT,POTATO,BUFFER4,Buffer,51,54,Study,User,-,,Study/JOL,BUFFER2,,2531,,,-1,-1,,,,1
62b3491fc3790d748d09dc12,vytsmunep4,"Mediated Recog Prolific",1,57,2023-05-08T21:33:41+00:00,3.2956919670105,7,versionD_stim.csv,ReadVersion_Recog.csv,"Read Recog",Read4,SHRIMP,FISH,BUFFER4,Buffer,53,53,Study,User,-,,Study/JOL,BUFFER2,,2537,,,-1,-1,,,,1
62b3491fc3790d748d09dc12,vytsmunep4,"Mediated Recog Prolific",1,58,2023-05-08T21:33:44+00:00,3.6249749660492,7,versionD_stim.csv,ReadVersion_Recog.csv,"Read Recog",Read4,,,,,,0,Instruct,User,-,"You have completed this section. Please press Enter.",Filler_Instruction,Instruct2,,2935,,,-1,-1,,,,1
62b3491fc3790d748d09dc12,vytsmunep4,"Mediated Recog Prolific",1,59,2023-05-08T21:35:45+00:00,120.78471899033,7,versionD_stim.csv,ReadVersion_Recog.csv,"Read Recog",Read4,,,,,,0,FreeRecall,120,120,"Please list the 50 US states in alphabetical order. The task will automatically advance to the next screen after two minutes.",,Filler1,,120014,"Alaska Boston Florida Las vegas Miami Philadelphia Texas Washington DC",0,8286,95737,0,0,,1
62b3491fc3790d748d09dc12,vytsmunep4,"Mediated Recog Prolific",1,60,2023-05-08T21:36:25+00:00,40.04169511795,7,versionD_stim.csv,ReadVersion_Recog.csv,"Read Recog",Read4,,,,,,0,Instruct,User,10,"Your memory will now be tested. You will be presented with a series of words that may or may not have been previously presented alongside another word. If the word on the screen was previously studied, please select YES. If the word was not studied, select NO. PLEASE DO NOT SKIP ITEMS! Click next when you are ready to begin.",,Instruc7982154d,,38883,,,-1,-1,,,,0.96
62b3491fc3790d748d09dc12,vytsmunep4,"Mediated Recog Prolific",1,61,2023-05-08T21:36:30+00:00,4.3575389385223,7,versionD_stim.csv,ReadVersion_Recog.csv,"Read Recog",Read4,,SILK,RECOG,Control,65,137,Likert,User,1,"Was this item previously studied?",PRESENTED,Recog,1::2,3532,NO,0,-1,-1,0,0,,1
62b3491fc3790d748d09dc12,vytsmunep4,"Mediated Recog Prolific",1,62,2023-05-08T21:36:35+00:00,5.0297031402588,7,versionD_stim.csv,ReadVersion_Recog.csv,"Read Recog",Read4,,BASKET,RECOG,Presented,116,79,Likert,User,1,"Was this item previously studied?",CONTROL,Recog,1::2,4179,YES,22.222222222222,-1,-1,0,0,,1
62b3491fc3790d748d09dc12,vytsmunep4,"Mediated Recog Prolific",1,63,2023-05-08T21:36:39+00:00,3.9641637802124,7,versionD_stim.csv,ReadVersion_Recog.csv,"Read Recog",Read4,,CLOTHES,RECOG,Presented,124,96,Likert,User,1,"Was this item previously studied?",CONTROL,Recog,1::2,2670,YES,40,-1,-1,0,0,,1
62b3491fc3790d748d09dc12,vytsmunep4,"Mediated Recog Prolific",1,64,2023-05-08T21:36:43+00:00,4.2555780410767,7,versionD_stim.csv,ReadVersion_Recog.csv,"Read Recog",Read4,,FLOWER,RECOG,Control,89,60,Likert,User,1,"Was this item previously studied?",CONTROL,Recog,1::2,3358,YES,22.222222222222,-1,-1,0,0,,1
62b3491fc3790d748d09dc12,vytsmunep4,"Mediated Recog Prolific",1,65,2023-05-08T21:36:46+00:00,3.4832611083984,7,versionD_stim.csv,ReadVersion_Recog.csv,"Read Recog",Read4,,BELT,RECOG,Control,101,122,Likert,User,1,"Was this item previously studied?",PRESENTED,Recog,1::2,2517,NO,0,-1,-1,0,0,,1
62b3491fc3790d748d09dc12,vytsmunep4,"Mediated Recog Prolific",1,66,2023-05-08T21:36:53+00:00,6.2120389938354,7,versionD_stim.csv,ReadVersion_Recog.csv,"Read Recog",Read4,,MORNING,RECOG,Control,103,139,Likert,User,1,"Was this item previously studied?",PRESENTED,Recog,1::2,2677,NO,22.222222222222,-1,-1,0,0,,1
62b3491fc3790d748d09dc12,vytsmunep4,"Mediated Recog Prolific",1,67,2023-05-08T21:37:00+00:00,7.4032909870148,7,versionD_stim.csv,ReadVersion_Recog.csv,"Read Recog",Read4,,CARD,RECOG,Control,88,115,Likert,User,1,"Was this item previously studied?",PRESENTED,Recog,1::2,5913,NO,0,-1,-1,0,0,,1
62b3491fc3790d748d09dc12,vytsmunep4,"Mediated Recog Prolific",1,68,2023-05-08T21:37:04+00:00,3.7216548919678,7,versionD_stim.csv,ReadVersion_Recog.csv,"Read Recog",Read4,,COLLAR,RECOG,Presented,108,65,Likert,User,1,"Was this item previously studied?",CONTROL,Recog,1::2,2752,YES,0,-1,-1,0,0,,1
62b3491fc3790d748d09dc12,vytsmunep4,"Mediated Recog Prolific",1,69,2023-05-08T21:37:08+00:00,4.3432819843292,7,versionD_stim.csv,ReadVersion_Recog.csv,"Read Recog",Read4,,FISH,RECOG,Control,90,119,Likert,User,1,"Was this item previously studied?",PRESENTED,Recog,1::2,3463,YES,28.571428571429,-1,-1,0,0,,1
62b3491fc3790d748d09dc12,vytsmunep4,"Mediated Recog Prolific",1,70,2023-05-08T21:37:16+00:00,7.5277400016785,7,versionD_stim.csv,ReadVersion_Recog.csv,"Read Recog",Read4,,BIRD,RECOG,Control,81,69,Likert,User,1,"Was this item previously studied?",CONTROL,Recog,1::2,5288,NO,0,-1,-1,0,0,,1
62b3491fc3790d748d09dc12,vytsmunep4,"Mediated Recog Prolific",1,71,2023-05-08T21:37:21+00:00,5.0615692138672,7,versionD_stim.csv,ReadVersion_Recog.csv,"Read Recog",Read4,,STING,RECOG,Presented,130,140,Likert,User,1,"Was this item previously studied?",PRESENTED,Recog,1::2,3919,YES,25,-1,-1,0,0,,1
62b3491fc3790d748d09dc12,vytsmunep4,"Mediated Recog Prolific",1,72,2023-05-08T21:37:25+00:00,4.2932798862457,7,versionD_stim.csv,ReadVersion_Recog.csv,"Read Recog",Read4,,DRINK,RECOG,Presented,112,78,Likert,User,1,"Was this item previously studied?",CONTROL,Recog,1::2,3374,YES,0,-1,-1,0,0,,1
62b3491fc3790d748d09dc12,vytsmunep4,"Mediated Recog Prolific",1,73,2023-05-08T21:37:34+00:00,9.1560490131378,7,versionD_stim.csv,ReadVersion_Recog.csv,"Read Recog",Read4,,PAPER,RECOG,Presented,127,111,Likert,User,1,"Was this item previously studied?",PRESENTED,Recog,1::2,7877,NO,0,-1,-1,0,0,,1
62b3491fc3790d748d09dc12,vytsmunep4,"Mediated Recog Prolific",1,74,2023-05-08T21:37:41+00:00,6.5117878913879,7,versionD_stim.csv,ReadVersion_Recog.csv,"Read Recog",Read4,,WOLF,RECOG,Presented,138,142,Likert,User,1,"Was this item previously studied?",PRESENTED,Recog,1::2,4837,NO,33.333333333333,-1,-1,0,0,,1
62b3491fc3790d748d09dc12,vytsmunep4,"Mediated Recog Prolific",1,75,2023-05-08T21:37:45+00:00,4.0570170879364,7,versionD_stim.csv,ReadVersion_Recog.csv,"Read Recog",Read4,,CHARM,RECOG,Control,95,128,Likert,User,1,"Was this item previously studied?",PRESENTED,Recog,1::2,2958,NO,0,-1,-1,0,0,,1
62b3491fc3790d748d09dc12,vytsmunep4,"Mediated Recog Prolific",1,76,2023-05-08T21:37:53+00:00,8.0720970630646,7,versionD_stim.csv,ReadVersion_Recog.csv,"Read Recog",Read4,,RED,RECOG,Presented,125,134,Likert,User,1,"Was this item previously studied?",PRESENTED,Recog,1::2,6751,NO,0,-1,-1,0,0,,1
62b3491fc3790d748d09dc12,vytsmunep4,"Mediated Recog Prolific",1,77,2023-05-08T21:37:57+00:00,4.3826069831848,7,versionD_stim.csv,ReadVersion_Recog.csv,"Read Recog",Read4,,FEATHER,RECOG,Presented,113,89,Likert,User,1,"Was this item previously studied?",CONTROL,Recog,1::2,2827,YES,20,-1,-1,0,0,,1
62b3491fc3790d748d09dc12,vytsmunep4,"Mediated Recog Prolific",1,78,2023-05-08T21:38:02+00:00,5.3098299503326,7,versionD_stim.csv,ReadVersion_Recog.csv,"Read Recog",Read4,,BOTTLE,RECOG,Control,71,136,Likert,User,1,"Was this item previously studied?",PRESENTED,Recog,1::2,4228,NO,25,-1,-1,0,0,,1
62b3491fc3790d748d09dc12,vytsmunep4,"Mediated Recog Prolific",1,79,2023-05-08T21:38:06+00:00,3.3743278980255,7,versionD_stim.csv,ReadVersion_Recog.csv,"Read Recog",Read4,,COW,RECOG,Presented,133,87,Likert,User,1,"Was this item previously studied?",CONTROL,Recog,1::2,2144,YES,0,-1,-1,0,0,,1
62b3491fc3790d748d09dc12,vytsmunep4,"Mediated Recog Prolific",1,80,2023-05-08T21:38:12+00:00,6.0749011039734,7,versionD_stim.csv,ReadVersion_Recog.csv,"Read Recog",Read4,,TRASH,RECOG,Control,76,99,Likert,User,1,"Was this item previously studied?",CONTROL,Recog,1::2,4866,NO,0,-1,-1,0,0,,1
62b3491fc3790d748d09dc12,vytsmunep4,"Mediated Recog Prolific",1,81,2023-05-08T21:38:16+00:00,4.3019850254059,7,versionD_stim.csv,ReadVersion_Recog.csv,"Read Recog",Read4,,TOIL,RECOG,Presented,146,117,Likert,User,1,"Was this item previously studied?",PRESENTED,Recog,1::2,3118,NO,33.333333333333,-1,-1,0,0,,1
62b3491fc3790d748d09dc12,vytsmunep4,"Mediated Recog Prolific",1,82,2023-05-08T21:38:19+00:00,3.2454359531403,7,versionD_stim.csv,ReadVersion_Recog.csv,"Read Recog",Read4,,VASE,RECOG,Presented,136,146,Likert,User,1,"Was this item previously studied?",PRESENTED,Recog,1::2,2251,YES,28.571428571429,-1,-1,0,0,,1
62b3491fc3790d748d09dc12,vytsmunep4,"Mediated Recog Prolific",1,83,2023-05-08T21:38:24+00:00,4.4564061164856,7,versionD_stim.csv,ReadVersion_Recog.csv,"Read Recog",Read4,,CAR,RECOG,Presented,137,101,Likert,User,1,"Was this item previously studied?",CONTROL,Recog,1::2,3511,YES,0,-1,-1,0,0,,1
62b3491fc3790d748d09dc12,vytsmunep4,"Mediated Recog Prolific",1,84,2023-05-08T21:38:31+00:00,6.7002799510956,7,versionD_stim.csv,ReadVersion_Recog.csv,"Read Recog",Read4,,STOP,RECOG,Presented,107,92,Likert,User,1,"Was this item previously studied?",CONTROL,Recog,1::2,5447,NO,33.333333333333,-1,-1,0,0,,1
62b3491fc3790d748d09dc12,vytsmunep4,"Mediated Recog Prolific",1,85,2023-05-08T21:38:35+00:00,4.4034080505371,7,versionD_stim.csv,ReadVersion_Recog.csv,"Read Recog",Read4,,PLANT,RECOG,Control,80,107,Likert,User,1,"Was this item previously studied?",PRESENTED,Recog,1::2,3233,YES,0,-1,-1,0,0,,1
62b3491fc3790d748d09dc12,vytsmunep4,"Mediated Recog Prolific",1,86,2023-05-08T21:38:39+00:00,4.2758758068085,7,versionD_stim.csv,ReadVersion_Recog.csv,"Read Recog",Read4,,FIRE,RECOG,Presented,126,95,Likert,User,1,"Was this item previously studied?",CONTROL,Recog,1::2,3428,YES,28.571428571429,-1,-1,0,0,,1
62b3491fc3790d748d09dc12,vytsmunep4,"Mediated Recog Prolific",1,87,2023-05-08T21:38:43+00:00,3.5135459899902,7,versionD_stim.csv,ReadVersion_Recog.csv,"Read Recog",Read4,,BOUNCE,RECOG,Control,67,67,Likert,User,1,"Was this item previously studied?",CONTROL,Recog,1::2,2560,NO,25,-1,-1,0,0,,1
62b3491fc3790d748d09dc12,vytsmunep4,"Mediated Recog Prolific",1,88,2023-05-08T21:38:48+00:00,5.368360042572,7,versionD_stim.csv,ReadVersion_Recog.csv,"Read Recog",Read4,,CLUTTER,RECOG,Presented,141,126,Likert,User,1,"Was this item previously studied?",PRESENTED,Recog,1::2,4475,NO,0,-1,-1,0,0,,1
62b3491fc3790d748d09dc12,vytsmunep4,"Mediated Recog Prolific",1,89,2023-05-08T21:38:51+00:00,3.0363781452179,7,versionD_stim.csv,ReadVersion_Recog.csv,"Read Recog",Read4,,BANG,RECOG,Control,105,124,Likert,User,1,"Was this item previously studied?",PRESENTED,Recog,1::2,1782,NO,33.333333333333,-1,-1,0,0,,1
62b3491fc3790d748d09dc12,vytsmunep4,"Mediated Recog Prolific",1,90,2023-05-08T21:38:54+00:00,2.7061970233917,7,versionD_stim.csv,ReadVersion_Recog.csv,"Read Recog",Read4,,SYRUP,RECOG,Control,66,72,Likert,User,1,"Was this item previously studied?",CONTROL,Recog,1::2,1656,NO,0,-1,-1,0,0,,1
62b3491fc3790d748d09dc12,vytsmunep4,"Mediated Recog Prolific",1,91,2023-05-08T21:38:58+00:00,4.0392038822174,7,versionD_stim.csv,ReadVersion_Recog.csv,"Read Recog",Read4,,LOVE,RECOG,Control,86,93,Likert,User,1,"Was this item previously studied?",CONTROL,Recog,1::2,3070,YES,28.571428571429,-1,-1,0,0,,1
62b3491fc3790d748d09dc12,vytsmunep4,"Mediated Recog Prolific",1,92,2023-05-08T21:39:02+00:00,4.4526541233063,7,versionD_stim.csv,ReadVersion_Recog.csv,"Read Recog",Read4,,OUNCE,RECOG,Presented,147,127,Likert,User,1,"Was this item previously studied?",PRESENTED,Recog,1::2,3507,NO,28.571428571429,-1,-1,0,0,,1
62b3491fc3790d748d09dc12,vytsmunep4,"Mediated Recog Prolific",1,93,2023-05-08T21:39:07+00:00,5.0902709960938,7,versionD_stim.csv,ReadVersion_Recog.csv,"Read Recog",Read4,,SHAKE,RECOG,Control,98,62,Likert,User,1,"Was this item previously studied?",CONTROL,Recog,1::2,4260,YES,25,-1,-1,0,0,,1
62b3491fc3790d748d09dc12,vytsmunep4,"Mediated Recog Prolific",1,94,2023-05-08T21:39:12+00:00,4.1763708591461,7,versionD_stim.csv,ReadVersion_Recog.csv,"Read Recog",Read4,,HEAD,RECOG,Control,78,57,Likert,User,1,"Was this item previously studied?",CONTROL,Recog,1::2,2802,YES,28.571428571429,-1,-1,0,0,,1
62b3491fc3790d748d09dc12,vytsmunep4,"Mediated Recog Prolific",1,95,2023-05-08T21:39:18+00:00,6.0910520553589,7,versionD_stim.csv,ReadVersion_Recog.csv,"Read Recog",Read4,,DARK,RECOG,Control,73,84,Likert,User,1,"Was this item previously studied?",CONTROL,Recog,1::2,4493,YES,0,-1,-1,0,0,,1
62b3491fc3790d748d09dc12,vytsmunep4,"Mediated Recog Prolific",1,96,2023-05-08T21:39:27+00:00,9.1038620471954,7,versionD_stim.csv,ReadVersion_Recog.csv,"Read Recog",Read4,,CLEAN,RECOG,Control,83,59,Likert,User,1,"Was this item previously studied?",CONTROL,Recog,1::2,7832,NO,28.571428571429,-1,-1,0,0,,1
62b3491fc3790d748d09dc12,vytsmunep4,"Mediated Recog Prolific",1,97,2023-05-08T21:39:29+00:00,2.6702299118042,7,versionD_stim.csv,ReadVersion_Recog.csv,"Read Recog",Read4,,CHILDREN,RECOG,Presented,149,61,Likert,User,1,"Was this item previously studied?",CONTROL,Recog,1::2,1621,YES,18.181818181818,-1,-1,0,0,,1
62b3491fc3790d748d09dc12,vytsmunep4,"Mediated Recog Prolific",1,98,2023-05-08T21:39:32+00:00,2.9340269565582,7,versionD_stim.csv,ReadVersion_Recog.csv,"Read Recog",Read4,,PLANT,RECOG,Presented,121,81,Likert,User,1,"Was this item previously studied?",CONTROL,Recog,1::2,1514,YES,0,-1,-1,0,0,,1
62b3491fc3790d748d09dc12,vytsmunep4,"Mediated Recog Prolific",1,99,2023-05-08T21:39:35+00:00,2.8886501789093,7,versionD_stim.csv,ReadVersion_Recog.csv,"Read Recog",Read4,,FICTION,RECOG,Control,99,76,Likert,User,1,"Was this item previously studied?",CONTROL,Recog,1::2,1757,NO,22.222222222222,-1,-1,0,0,,1
62b3491fc3790d748d09dc12,vytsmunep4,"Mediated Recog Prolific",1,100,2023-05-08T21:39:39+00:00,3.7605359554291,7,versionD_stim.csv,ReadVersion_Recog.csv,"Read Recog",Read4,,STRIPES,RECOG,Control,61,88,Likert,User,1,"Was this item previously studied?",CONTROL,Recog,1::2,2921,NO,0,-1,-1,0,0,,1
62b3491fc3790d748d09dc12,vytsmunep4,"Mediated Recog Prolific",1,101,2023-05-08T21:39:41+00:00,2.3807549476624,7,versionD_stim.csv,ReadVersion_Recog.csv,"Read Recog",Read4,,LEG,RECOG,Presented,150,98,Likert,User,1,"Was this item previously studied?",CONTROL,Recog,1::2,1436,YES,33.333333333333,-1,-1,0,0,,1
62b3491fc3790d748d09dc12,vytsmunep4,"Mediated Recog Prolific",1,102,2023-05-08T21:39:44+00:00,2.7010231018066,7,versionD_stim.csv,ReadVersion_Recog.csv,"Read Recog",Read4,,ACCIDENT,RECOG,Presented,139,80,Likert,User,1,"Was this item previously studied?",CONTROL,Recog,1::2,1800,NO,20,-1,-1,0,0,,1
62b3491fc3790d748d09dc12,vytsmunep4,"Mediated Recog Prolific",1,103,2023-05-08T21:39:46+00:00,2.3652839660645,7,versionD_stim.csv,ReadVersion_Recog.csv,"Read Recog",Read4,,DRINK,RECOG,Control,87,58,Likert,User,1,"Was this item previously studied?",CONTROL,Recog,1::2,1389,YES,0,-1,-1,0,0,,1
62b3491fc3790d748d09dc12,vytsmunep4,"Mediated Recog Prolific",1,104,2023-05-08T21:39:51+00:00,4.4977288246155,7,versionD_stim.csv,ReadVersion_Recog.csv,"Read Recog",Read4,,SMELL,RECOG,Presented,128,71,Likert,User,1,"Was this item previously studied?",CONTROL,Recog,1::2,3568,YES,25,-1,-1,0,0,,1
62b3491fc3790d748d09dc12,vytsmunep4,"Mediated Recog Prolific",1,105,2023-05-08T21:39:54+00:00,3.2407491207123,7,versionD_stim.csv,ReadVersion_Recog.csv,"Read Recog",Read4,,SEED,RECOG,Presented,114,144,Likert,User,1,"Was this item previously studied?",PRESENTED,Recog,1::2,2235,YES,28.571428571429,-1,-1,0,0,,1
62b3491fc3790d748d09dc12,vytsmunep4,"Mediated Recog Prolific",1,106,2023-05-08T21:39:57+00:00,2.4453768730164,7,versionD_stim.csv,ReadVersion_Recog.csv,"Read Recog",Read4,,COLD,RECOG,Presented,132,141,Likert,User,1,"Was this item previously studied?",PRESENTED,Recog,1::2,1562,YES,0,-1,-1,0,0,,1
62b3491fc3790d748d09dc12,vytsmunep4,"Mediated Recog Prolific",1,107,2023-05-08T21:40:02+00:00,5.1199281215668,7,versionD_stim.csv,ReadVersion_Recog.csv,"Read Recog",Read4,,SLEEP,RECOG,Control,84,112,Likert,User,1,"Was this item previously studied?",PRESENTED,Recog,1::2,4140,NO,0,-1,-1,0,0,,1
62b3491fc3790d748d09dc12,vytsmunep4,"Mediated Recog Prolific",1,108,2023-05-08T21:40:05+00:00,2.8860170841217,7,versionD_stim.csv,ReadVersion_Recog.csv,"Read Recog",Read4,,ELECTION,RECOG,Control,94,103,Likert,User,1,"Was this item previously studied?",PRESENTED,Recog,1::2,1621,NO,20,-1,-1,0,0,,1
62b3491fc3790d748d09dc12,vytsmunep4,"Mediated Recog Prolific",1,109,2023-05-08T21:40:11+00:00,6.7711508274078,7,versionD_stim.csv,ReadVersion_Recog.csv,"Read Recog",Read4,,RIDDLE,RECOG,Presented,140,91,Likert,User,1,"Was this item previously studied?",CONTROL,Recog,1::2,5415,NO,0,-1,-1,0,0,,1
62b3491fc3790d748d09dc12,vytsmunep4,"Mediated Recog Prolific",1,110,2023-05-08T21:40:15+00:00,3.3503630161285,7,versionD_stim.csv,ReadVersion_Recog.csv,"Read Recog",Read4,,HORN,RECOG,Presented,143,74,Likert,User,1,"Was this item previously studied?",CONTROL,Recog,1::2,1757,YES,0,-1,-1,0,0,,1
62b3491fc3790d748d09dc12,vytsmunep4,"Mediated Recog Prolific",1,111,2023-05-08T21:40:18+00:00,3.1378090381622,7,versionD_stim.csv,ReadVersion_Recog.csv,"Read Recog",Read4,,FINGER,RECOG,Control,72,133,Likert,User,1,"Was this item previously studied?",PRESENTED,Recog,1::2,2132,NO,25,-1,-1,0,0,,1
62b3491fc3790d748d09dc12,vytsmunep4,"Mediated Recog Prolific",1,112,2023-05-08T21:40:21+00:00,3.5318789482117,7,versionD_stim.csv,ReadVersion_Recog.csv,"Read Recog",Read4,,PEAK,RECOG,Presented,118,123,Likert,User,1,"Was this item previously studied?",PRESENTED,Recog,1::2,2597,YES,28.571428571429,-1,-1,0,0,,1
62b3491fc3790d748d09dc12,vytsmunep4,"Mediated Recog Prolific",1,113,2023-05-08T21:40:24+00:00,2.2134130001068,7,versionD_stim.csv,ReadVersion_Recog.csv,"Read Recog",Read4,,BASEBALL,RECOG,Presented,129,97,Likert,User,1,"Was this item previously studied?",CONTROL,Recog,1::2,1276,YES,18.181818181818,-1,-1,0,0,,1
62b3491fc3790d748d09dc12,vytsmunep4,"Mediated Recog Prolific",1,114,2023-05-08T21:40:27+00:00,2.8632071018219,7,versionD_stim.csv,ReadVersion_Recog.csv,"Read Recog",Read4,,KEYS,RECOG,Control,96,130,Likert,User,1,"Was this item previously studied?",PRESENTED,Recog,1::2,1920,YES,57.142857142857,-1,-1,0,0,,1
62b3491fc3790d748d09dc12,vytsmunep4,"Mediated Recog Prolific",1,115,2023-05-08T21:40:35+00:00,8.643728017807,7,versionD_stim.csv,ReadVersion_Recog.csv,"Read Recog",Read4,,HAIR,RECOG,Control,74,132,Likert,User,1,"Was this item previously studied?",PRESENTED,Recog,1::2,7394,NO,0,-1,-1,0,0,,1
62b3491fc3790d748d09dc12,vytsmunep4,"Mediated Recog Prolific",1,116,2023-05-08T21:40:39+00:00,4.1198608875275,7,versionD_stim.csv,ReadVersion_Recog.csv,"Read Recog",Read4,,SENTENCE,RECOG,Control,82,129,Likert,User,1,"Was this item previously studied?",PRESENTED,Recog,1::2,2932,NO,20,-1,-1,0,0,,1
62b3491fc3790d748d09dc12,vytsmunep4,"Mediated Recog Prolific",1,117,2023-05-08T21:40:42+00:00,3.0768029689789,7,versionD_stim.csv,ReadVersion_Recog.csv,"Read Recog",Read4,,MONEY,RECOG,Control,77,85,Likert,User,1,"Was this item previously studied?",CONTROL,Recog,1::2,2120,YES,25,-1,-1,0,0,,1
62b3491fc3790d748d09dc12,vytsmunep4,"Mediated Recog Prolific",1,118,2023-05-08T21:40:47+00:00,4.4156670570374,7,versionD_stim.csv,ReadVersion_Recog.csv,"Read Recog",Read4,,BUG,RECOG,Presented,134,113,Likert,User,1,"Was this item previously studied?",PRESENTED,Recog,1::2,3556,YES,0,-1,-1,0,0,,1
62b3491fc3790d748d09dc12,vytsmunep4,"Mediated Recog Prolific",1,119,2023-05-08T21:40:50+00:00,3.0463099479675,7,versionD_stim.csv,ReadVersion_Recog.csv,"Read Recog",Read4,,DONKEY,RECOG,Control,85,83,Likert,User,1,"Was this item previously studied?",CONTROL,Recog,1::2,2104,NO,25,-1,-1,0,0,,1
62b3491fc3790d748d09dc12,vytsmunep4,"Mediated Recog Prolific",1,120,2023-05-08T21:40:52+00:00,2.4976150989532,7,versionD_stim.csv,ReadVersion_Recog.csv,"Read Recog",Read4,,PHONE,RECOG,Control,97,68,Likert,User,1,"Was this item previously studied?",CONTROL,Recog,1::2,1456,NO,28.571428571429,-1,-1,0,0,,1
62b3491fc3790d748d09dc12,vytsmunep4,"Mediated Recog Prolific",1,121,2023-05-08T21:40:55+00:00,2.6932370662689,7,versionD_stim.csv,ReadVersion_Recog.csv,"Read Recog",Read4,,DONKEY,RECOG,Control,79,102,Likert,User,1,"Was this item previously studied?",PRESENTED,Recog,1::2,1593,NO,25,-1,-1,0,0,,1
62b3491fc3790d748d09dc12,vytsmunep4,"Mediated Recog Prolific",1,122,2023-05-08T21:40:59+00:00,3.6201498508453,7,versionD_stim.csv,ReadVersion_Recog.csv,"Read Recog",Read4,,QUIET,RECOG,Control,63,100,Likert,User,1,"Was this item previously studied?",CONTROL,Recog,1::2,2618,YES,25,-1,-1,0,0,,1
62b3491fc3790d748d09dc12,vytsmunep4,"Mediated Recog Prolific",1,123,2023-05-08T21:41:03+00:00,3.9920320510864,7,versionD_stim.csv,ReadVersion_Recog.csv,"Read Recog",Read4,,HAND,RECOG,Control,104,104,Likert,User,1,"Was this item previously studied?",PRESENTED,Recog,1::2,2973,YES,0,-1,-1,0,0,,1
62b3491fc3790d748d09dc12,vytsmunep4,"Mediated Recog Prolific",1,124,2023-05-08T21:41:05+00:00,2.3103609085083,7,versionD_stim.csv,ReadVersion_Recog.csv,"Read Recog",Read4,,DANCE,RECOG,Control,68,86,Likert,User,1,"Was this item previously studied?",CONTROL,Recog,1::2,1425,NO,28.571428571429,-1,-1,0,0,,1
62b3491fc3790d748d09dc12,vytsmunep4,"Mediated Recog Prolific",1,125,2023-05-08T21:41:08+00:00,3.4424221515656,7,versionD_stim.csv,ReadVersion_Recog.csv,"Read Recog",Read4,,CAVE,RECOG,Presented,115,105,Likert,User,1,"Was this item previously studied?",PRESENTED,Recog,1::2,2523,YES,28.571428571429,-1,-1,0,0,,1
62b3491fc3790d748d09dc12,vytsmunep4,"Mediated Recog Prolific",1,126,2023-05-08T21:41:11+00:00,2.2254998683929,7,versionD_stim.csv,ReadVersion_Recog.csv,"Read Recog",Read4,,CUT,RECOG,Presented,122,63,Likert,User,1,"Was this item previously studied?",CONTROL,Recog,1::2,1291,YES,0,-1,-1,0,0,,1
62b3491fc3790d748d09dc12,vytsmunep4,"Mediated Recog Prolific",1,127,2023-05-08T21:41:15+00:00,3.9699251651764,7,versionD_stim.csv,ReadVersion_Recog.csv,"Read Recog",Read4,,STEAK,RECOG,Control,93,118,Likert,User,1,"Was this item previously studied?",PRESENTED,Recog,1::2,3056,NO,0,-1,-1,0,0,,1
62b3491fc3790d748d09dc12,vytsmunep4,"Mediated Recog Prolific",1,128,2023-05-08T21:41:17+00:00,2.2524738311768,7,versionD_stim.csv,ReadVersion_Recog.csv,"Read Recog",Read4,,WHEEL,RECOG,Control,69,138,Likert,User,1,"Was this item previously studied?",PRESENTED,Recog,1::2,1293,NO,0,-1,-1,0,0,,1
62b3491fc3790d748d09dc12,vytsmunep4,"Mediated Recog Prolific",1,129,2023-05-08T21:41:19+00:00,2.5286231040955,7,versionD_stim.csv,ReadVersion_Recog.csv,"Read Recog",Read4,,HIDE,RECOG,Presented,145,116,Likert,User,1,"Was this item previously studied?",PRESENTED,Recog,1::2,1467,YES,28.571428571429,-1,-1,0,0,,1
62b3491fc3790d748d09dc12,vytsmunep4,"Mediated Recog Prolific",1,130,2023-05-08T21:41:23+00:00,3.4566900730133,7,versionD_stim.csv,ReadVersion_Recog.csv,"Read Recog",Read4,,FIGHT,RECOG,Presented,131,66,Likert,User,1,"Was this item previously studied?",CONTROL,Recog,1::2,2452,YES,0,-1,-1,0,0,,1
62b3491fc3790d748d09dc12,vytsmunep4,"Mediated Recog Prolific",1,131,2023-05-08T21:41:29+00:00,6.2174859046936,7,versionD_stim.csv,ReadVersion_Recog.csv,"Read Recog",Read4,,WATER,RECOG,Presented,135,82,Likert,User,1,"Was this item previously studied?",CONTROL,Recog,1::2,4901,NO,0,-1,-1,0,0,,1
62b3491fc3790d748d09dc12,vytsmunep4,"Mediated Recog Prolific",1,132,2023-05-08T21:41:32+00:00,2.6919848918915,7,versionD_stim.csv,ReadVersion_Recog.csv,"Read Recog",Read4,,CARPET,RECOG,Control,70,94,Likert,User,1,"Was this item previously studied?",CONTROL,Recog,1::2,1270,NO,0,-1,-1,0,0,,1
62b3491fc3790d748d09dc12,vytsmunep4,"Mediated Recog Prolific",1,133,2023-05-08T21:41:34+00:00,2.3178381919861,7,versionD_stim.csv,ReadVersion_Recog.csv,"Read Recog",Read4,,MUSCLE,RECOG,Presented,120,73,Likert,User,1,"Was this item previously studied?",CONTROL,Recog,1::2,1404,YES,22.222222222222,-1,-1,0,0,,1
62b3491fc3790d748d09dc12,vytsmunep4,"Mediated Recog Prolific",1,134,2023-05-08T21:41:37+00:00,2.6588280200958,7,versionD_stim.csv,ReadVersion_Recog.csv,"Read Recog",Read4,,COTTON,RECOG,Control,75,108,Likert,User,1,"Was this item previously studied?",PRESENTED,Recog,1::2,1608,NO,25,-1,-1,0,0,,1
62b3491fc3790d748d09dc12,vytsmunep4,"Mediated Recog Prolific",1,135,2023-05-08T21:41:39+00:00,2.5249898433685,7,versionD_stim.csv,ReadVersion_Recog.csv,"Read Recog",Read4,,HAMMER,RECOG,Presented,123,125,Likert,User,1,"Was this item previously studied?",PRESENTED,Recog,1::2,1392,YES,22.222222222222,-1,-1,0,0,,1
62b3491fc3790d748d09dc12,vytsmunep4,"Mediated Recog Prolific",1,136,2023-05-08T21:41:42+00:00,2.6091220378876,7,versionD_stim.csv,ReadVersion_Recog.csv,"Read Recog",Read4,,KNOB,RECOG,Presented,119,114,Likert,User,1,"Was this item previously studied?",PRESENTED,Recog,1::2,1612,YES,0,-1,-1,0,0,,1
62b3491fc3790d748d09dc12,vytsmunep4,"Mediated Recog Prolific",1,137,2023-05-08T21:41:45+00:00,2.775407075882,7,versionD_stim.csv,ReadVersion_Recog.csv,"Read Recog",Read4,,SMELL,RECOG,Presented,110,75,Likert,User,1,"Was this item previously studied?",CONTROL,Recog,1::2,1677,YES,25,-1,-1,0,0,,1
62b3491fc3790d748d09dc12,vytsmunep4,"Mediated Recog Prolific",1,138,2023-05-08T21:41:50+00:00,5.3393549919128,7,versionD_stim.csv,ReadVersion_Recog.csv,"Read Recog",Read4,,SACK,RECOG,Presented,142,121,Likert,User,1,"Was this item previously studied?",PRESENTED,Recog,1::2,4309,NO,0,-1,-1,0,0,,1
62b3491fc3790d748d09dc12,vytsmunep4,"Mediated Recog Prolific",1,139,2023-05-08T21:41:53+00:00,3.2082469463348,7,versionD_stim.csv,ReadVersion_Recog.csv,"Read Recog",Read4,,ISLAND,RECOG,Presented,109,106,Likert,User,1,"Was this item previously studied?",PRESENTED,Recog,1::2,1781,NO,25,-1,-1,0,0,,1
62b3491fc3790d748d09dc12,vytsmunep4,"Mediated Recog Prolific",1,140,2023-05-08T21:41:57+00:00,3.5681409835815,7,versionD_stim.csv,ReadVersion_Recog.csv,"Read Recog",Read4,,LAWYER,RECOG,Presented,111,143,Likert,User,1,"Was this item previously studied?",PRESENTED,Recog,1::2,2593,NO,0,-1,-1,0,0,,1
62b3491fc3790d748d09dc12,vytsmunep4,"Mediated Recog Prolific",1,141,2023-05-08T21:42:00+00:00,3.0826461315155,7,versionD_stim.csv,ReadVersion_Recog.csv,"Read Recog",Read4,,THIGH,RECOG,Presented,117,90,Likert,User,1,"Was this item previously studied?",CONTROL,Recog,1::2,1588,NO,0,-1,-1,0,0,,1
62b3491fc3790d748d09dc12,vytsmunep4,"Mediated Recog Prolific",1,142,2023-05-08T21:42:03+00:00,3.0654888153076,7,versionD_stim.csv,ReadVersion_Recog.csv,"Read Recog",Read4,,MAROON,RECOG,Control,91,145,Likert,User,1,"Was this item previously studied?",PRESENTED,Recog,1::2,2162,NO,25,-1,-1,0,0,,1
62b3491fc3790d748d09dc12,vytsmunep4,"Mediated Recog Prolific",1,143,2023-05-08T21:42:05+00:00,2.413407087326,7,versionD_stim.csv,ReadVersion_Recog.csv,"Read Recog",Read4,,CLOTH,RECOG,Control,92,109,Likert,User,1,"Was this item previously studied?",PRESENTED,Recog,1::2,1427,YES,0,-1,-1,0,0,,1
62b3491fc3790d748d09dc12,vytsmunep4,"Mediated Recog Prolific",1,144,2023-05-08T21:42:09+00:00,4.0583810806274,7,versionD_stim.csv,ReadVersion_Recog.csv,"Read Recog",Read4,,TICK,RECOG,Control,102,135,Likert,User,1,"Was this item previously studied?",PRESENTED,Recog,1::2,3205,YES,0,-1,-1,0,0,,1
62b3491fc3790d748d09dc12,vytsmunep4,"Mediated Recog Prolific",1,145,2023-05-08T21:42:13+00:00,3.9322779178619,7,versionD_stim.csv,ReadVersion_Recog.csv,"Read Recog",Read4,,SNOW,RECOG,Presented,106,110,Likert,User,1,"Was this item previously studied?",PRESENTED,Recog,1::2,2894,YES,28.571428571429,-1,-1,0,0,,1
62b3491fc3790d748d09dc12,vytsmunep4,"Mediated Recog Prolific",1,146,2023-05-08T21:42:16+00:00,2.3764929771423,7,versionD_stim.csv,ReadVersion_Recog.csv,"Read Recog",Read4,,PIE,RECOG,Control,64,70,Likert,User,1,"Was this item previously studied?",CONTROL,Recog,1::2,1488,NO,0,-1,-1,0,0,,0.75
62b3491fc3790d748d09dc12,vytsmunep4,"Mediated Recog Prolific",1,147,2023-05-08T21:42:19+00:00,2.9835529327393,7,versionD_stim.csv,ReadVersion_Recog.csv,"Read Recog",Read4,,BRONZE,RECOG,Presented,148,77,Likert,User,1,"Was this item previously studied?",CONTROL,Recog,1::2,2040,NO,25,-1,-1,0,0,,1
62b3491fc3790d748d09dc12,vytsmunep4,"Mediated Recog Prolific",1,148,2023-05-08T21:42:22+00:00,3.0931930541992,7,versionD_stim.csv,ReadVersion_Recog.csv,"Read Recog",Read4,,BOX,RECOG,Control,62,64,Likert,User,1,"Was this item previously studied?",CONTROL,Recog,1::2,2205,YES,0,-1,-1,0,0,,1
62b3491fc3790d748d09dc12,vytsmunep4,"Mediated Recog Prolific",1,149,2023-05-08T21:42:28+00:00,6.5732419490814,7,versionD_stim.csv,ReadVersion_Recog.csv,"Read Recog",Read4,,BUSINESS,RECOG,Presented,144,120,Likert,User,1,"Was this item previously studied?",PRESENTED,Recog,1::2,4776,YES,36.363636363636,-1,-1,0,0,,1
62b3491fc3790d748d09dc12,vytsmunep4,"Mediated Recog Prolific",1,150,2023-05-08T21:42:31+00:00,3.1469330787659,7,versionD_stim.csv,ReadVersion_Recog.csv,"Read Recog",Read4,,ROD,RECOG,Control,100,131,Likert,User,1,"Was this item previously studied?",PRESENTED,Recog,1::2,2069,NO,40,-1,-1,0,0,,1
62b3491fc3790d748d09dc12,vytsmunep4,"Mediated Recog Prolific",1,151,2023-05-08T21:42:34+00:00,2.6181299686432,7,versionD_stim.csv,ReadVersion_Recog.csv,"Read Recog",Read4,,,,,,0,Instruct,User,-,"You have completed this section. Please press Enter.",,Instruct7,,1745,,,-1,-1,,,,1
62b3491fc3790d748d09dc12,vytsmunep4,"Mediated Recog Prolific",1,152,2023-05-08T21:42:38+00:00,3.8320090770721,7,versionD_stim.csv,ReadVersion_Recog.csv,"Read Recog",Read4,,,,,,0,Instruct,User,-,"The following screen will ask you a few questions abour your experience today. You must complete these questions to receive credit.",,Instruct8,,2967,,,-1,-1,,,,1
