Username,ID,ExperimentName,Session,Trial,Date,TimeDif,"Condition Number","Stimuli File","Order File","Condition Description","Condition Notes",Stimuli*Cue,Stimuli*Answer,Stimuli*Shuffle,"Stimuli*Stimuli Notes",Stimuli*Value,Procedure*Item,"Procedure*Trial Type","Procedure*Max Time","Procedure*Min Time",Procedure*Text,"Procedure*Procedure Notes",Procedure*Shuffle,Procedure*,Response*RT,Response*Response,Response*Accuracy,Response*RTfirst,Response*RTlast,Response*strictAcc,Response*lenientAcc,Response*focus,Response*Focus
63f7e1bb3866d96e37ecfd1c,2ni2ihydwz,"Mediated Recog Prolific",1,1,2023-05-09T00:11:13+00:00,52.298257112503,7,versionD_stim.csv,ReadVersion_Recog.csv,"Read Recog",Read4,,,,,,0,Instruct,-,5,"In this section, you will be presented with a series of word pairs. Please study each word pair! Your memory will be tested!",Initial_Instruct,Instruct1,,52189,,,-1,-1,,,,0.203
63f7e1bb3866d96e37ecfd1c,2ni2ihydwz,"Mediated Recog Prolific",1,2,2023-05-09T00:11:14+00:00,1.2229578495026,7,versionD_stim.csv,ReadVersion_Recog.csv,"Read Recog",Read4,,,,,,0,Instruct,User,-,"You will now begin. Press Enter when you are ready to begin.",,Instruct16,,1101,,,-1,-1,,,,1
63f7e1bb3866d96e37ecfd1c,2ni2ihydwz,"Mediated Recog Prolific",1,3,2023-05-09T00:11:16+00:00,1.598580121994,7,versionD_stim.csv,ReadVersion_Recog.csv,"Read Recog",Read4,OCTOBER,SPOOKY,BUFFER3,Buffer,5,3,Study,User,-,,Study/JOL,BUFFER,,1481,,,-1,-1,,,,1
63f7e1bb3866d96e37ecfd1c,2ni2ihydwz,"Mediated Recog Prolific",1,4,2023-05-09T00:11:17+00:00,1.277811050415,7,versionD_stim.csv,ReadVersion_Recog.csv,"Read Recog",Read4,TOOL,SHED,BUFFER3,Buffer,3,5,Study,User,-,,Study/JOL,BUFFER,,1153,,,-1,-1,,,,1
63f7e1bb3866d96e37ecfd1c,2ni2ihydwz,"Mediated Recog Prolific",1,5,2023-05-09T00:11:21+00:00,3.4823689460754,7,versionD_stim.csv,ReadVersion_Recog.csv,"Read Recog",Read4,SPRING,MARCH,BUFFER3,Buffer,4,6,Study,User,-,,Study/JOL,BUFFER,,3364,,,-1,-1,,,,0.846
63f7e1bb3866d96e37ecfd1c,2ni2ihydwz,"Mediated Recog Prolific",1,6,2023-05-09T00:11:21+00:00,0.928377866745,7,versionD_stim.csv,ReadVersion_Recog.csv,"Read Recog",Read4,MONTH,YEAR,BUFFER3,Buffer,2,2,Study,User,-,,Study/JOL,BUFFER,,813,,,-1,-1,,,,1
63f7e1bb3866d96e37ecfd1c,2ni2ihydwz,"Mediated Recog Prolific",1,7,2023-05-09T00:11:22+00:00,0.65414500236511,7,versionD_stim.csv,ReadVersion_Recog.csv,"Read Recog",Read4,DAYS,WEAKS,BUFFER3,Buffer,1,4,Study,User,-,,Study/JOL,BUFFER,,532,,,-1,-1,,,,1
63f7e1bb3866d96e37ecfd1c,2ni2ihydwz,"Mediated Recog Prolific",1,8,2023-05-09T00:11:34+00:00,12.397099018097,7,versionD_stim.csv,ReadVersion_Recog.csv,"Read Recog",Read4,WINDOW,KNOB,Study2,M,19,31,Study,User,-,,Study/JOL,"Study Phase",,12276,,,-1,-1,,,,1
63f7e1bb3866d96e37ecfd1c,2ni2ihydwz,"Mediated Recog Prolific",1,9,2023-05-09T00:11:35+00:00,0.9607081413269,7,versionD_stim.csv,ReadVersion_Recog.csv,"Read Recog",Read4,ATTIRE,CLOTHES,Study2,F,24,17,Study,User,-,,Study/JOL,"Study Phase",,845,,,-1,-1,,,,1
63f7e1bb3866d96e37ecfd1c,2ni2ihydwz,"Mediated Recog Prolific",1,10,2023-05-09T00:11:36+00:00,0.85930395126343,7,versionD_stim.csv,ReadVersion_Recog.csv,"Read Recog",Read4,RAZOR,MUSCLE,Study2,M,20,28,Study,User,-,,Study/JOL,"Study Phase",,741,,,-1,-1,,,,1
63f7e1bb3866d96e37ecfd1c,2ni2ihydwz,"Mediated Recog Prolific",1,11,2023-05-09T00:11:41+00:00,4.6537358760834,7,versionD_stim.csv,ReadVersion_Recog.csv,"Read Recog",Read4,CASH,LEG,Study2,U,50,18,Study,User,-,,Study/JOL,"Study Phase",,4535,,,-1,-1,,,,0.714
63f7e1bb3866d96e37ecfd1c,2ni2ihydwz,"Mediated Recog Prolific",1,12,2023-05-09T00:11:43+00:00,2.5278141498566,7,versionD_stim.csv,ReadVersion_Recog.csv,"Read Recog",Read4,INCENSE,SMELL,Study2,F,28,30,Study,User,-,,Study/JOL,"Study Phase",,2412,,,-1,-1,,,,1
63f7e1bb3866d96e37ecfd1c,2ni2ihydwz,"Mediated Recog Prolific",1,13,2023-05-09T00:11:46+00:00,2.1661410331726,7,versionD_stim.csv,ReadVersion_Recog.csv,"Read Recog",Read4,CHOP,CUT,Study2,F,22,15,Study,User,-,,Study/JOL,"Study Phase",,2049,,,-1,-1,,,,1
63f7e1bb3866d96e37ecfd1c,2ni2ihydwz,"Mediated Recog Prolific",1,14,2023-05-09T00:11:47+00:00,0.89800596237183,7,versionD_stim.csv,ReadVersion_Recog.csv,"Read Recog",Read4,STRONG,ACCIDENT,Study2,U,39,40,Study,User,-,,Study/JOL,"Study Phase",,784,,,-1,-1,,,,1
63f7e1bb3866d96e37ecfd1c,2ni2ihydwz,"Mediated Recog Prolific",1,15,2023-05-09T00:11:47+00:00,0.84642100334167,7,versionD_stim.csv,ReadVersion_Recog.csv,"Read Recog",Read4,CHERRY,RED,Study2,F,25,46,Study,User,-,,Study/JOL,"Study Phase",,733,,,-1,-1,,,,1
63f7e1bb3866d96e37ecfd1c,2ni2ihydwz,"Mediated Recog Prolific",1,16,2023-05-09T00:11:49+00:00,1.8439099788666,7,versionD_stim.csv,ReadVersion_Recog.csv,"Read Recog",Read4,DIETARY,SACK,Study2,U,42,48,Study,User,-,,Study/JOL,"Study Phase",,857,,,-1,-1,,,,1
63f7e1bb3866d96e37ecfd1c,2ni2ihydwz,"Mediated Recog Prolific",1,17,2023-05-09T00:11:51+00:00,1.4691388607025,7,versionD_stim.csv,ReadVersion_Recog.csv,"Read Recog",Read4,CHISEL,HAMMER,Study2,F,23,49,Study,User,-,,Study/JOL,"Study Phase",,1347,,,-1,-1,,,,1
63f7e1bb3866d96e37ecfd1c,2ni2ihydwz,"Mediated Recog Prolific",1,18,2023-05-09T00:11:52+00:00,1.4539082050323,7,versionD_stim.csv,ReadVersion_Recog.csv,"Read Recog",Read4,TRAP,CAVE,Study2,M,15,50,Study,User,-,,Study/JOL,"Study Phase",,1330,,,-1,-1,,,,1
63f7e1bb3866d96e37ecfd1c,2ni2ihydwz,"Mediated Recog Prolific",1,19,2023-05-09T00:11:53+00:00,0.85948181152344,7,versionD_stim.csv,ReadVersion_Recog.csv,"Read Recog",Read4,ART,WOLF,Study2,U,38,12,Study,User,-,,Study/JOL,"Study Phase",,742,,,-1,-1,,,,1
63f7e1bb3866d96e37ecfd1c,2ni2ihydwz,"Mediated Recog Prolific",1,20,2023-05-09T00:11:54+00:00,1.1171131134033,7,versionD_stim.csv,ReadVersion_Recog.csv,"Read Recog",Read4,BENCH,HORN,Study2,U,43,20,Study,User,-,,Study/JOL,"Study Phase",,997,,,-1,-1,,,,1
63f7e1bb3866d96e37ecfd1c,2ni2ihydwz,"Mediated Recog Prolific",1,21,2023-05-09T00:11:55+00:00,0.96789789199829,7,versionD_stim.csv,ReadVersion_Recog.csv,"Read Recog",Read4,SUMMER,SNOW,Study2,M,6,34,Study,User,-,,Study/JOL,"Study Phase",,855,,,-1,-1,,,,1
63f7e1bb3866d96e37ecfd1c,2ni2ihydwz,"Mediated Recog Prolific",1,22,2023-05-09T00:11:56+00:00,0.86329317092896,7,versionD_stim.csv,ReadVersion_Recog.csv,"Read Recog",Read4,BLAZE,FIRE,Study2,F,26,39,Study,User,-,,Study/JOL,"Study Phase",,747,,,-1,-1,,,,1
63f7e1bb3866d96e37ecfd1c,2ni2ihydwz,"Mediated Recog Prolific",1,23,2023-05-09T00:11:57+00:00,0.90668988227844,7,versionD_stim.csv,ReadVersion_Recog.csv,"Read Recog",Read4,WASP,BUG,Study2,F,34,43,Study,User,-,,Study/JOL,"Study Phase",,789,,,-1,-1,,,,1
63f7e1bb3866d96e37ecfd1c,2ni2ihydwz,"Mediated Recog Prolific",1,24,2023-05-09T00:11:58+00:00,0.85738396644592,7,versionD_stim.csv,ReadVersion_Recog.csv,"Read Recog",Read4,GRILL,THIGH,Study2,M,17,25,Study,User,-,,Study/JOL,"Study Phase",,737,,,-1,-1,,,,1
63f7e1bb3866d96e37ecfd1c,2ni2ihydwz,"Mediated Recog Prolific",1,25,2023-05-09T00:11:59+00:00,0.87925815582275,7,versionD_stim.csv,ReadVersion_Recog.csv,"Read Recog",Read4,CHILL,COLD,Study2,F,32,8,Study,User,-,,Study/JOL,"Study Phase",,761,,,-1,-1,,,,1
63f7e1bb3866d96e37ecfd1c,2ni2ihydwz,"Mediated Recog Prolific",1,26,2023-05-09T00:12:00+00:00,1.756992816925,7,versionD_stim.csv,ReadVersion_Recog.csv,"Read Recog",Read4,VALLEY,PEAK,Study2,M,18,32,Study,User,-,,Study/JOL,"Study Phase",,1642,,,-1,-1,,,,1
63f7e1bb3866d96e37ecfd1c,2ni2ihydwz,"Mediated Recog Prolific",1,27,2023-05-09T00:12:02+00:00,1.4850242137909,7,versionD_stim.csv,ReadVersion_Recog.csv,"Read Recog",Read4,DOCUMENT,PAPER,Study2,F,27,26,Study,User,-,,Study/JOL,"Study Phase",,1371,,,-1,-1,,,,1
63f7e1bb3866d96e37ecfd1c,2ni2ihydwz,"Mediated Recog Prolific",1,28,2023-05-09T00:12:03+00:00,0.76299595832825,7,versionD_stim.csv,ReadVersion_Recog.csv,"Read Recog",Read4,HEAVY,FEATHER,Study2,M,13,19,Study,User,-,,Study/JOL,"Study Phase",,650,,,-1,-1,,,,1
63f7e1bb3866d96e37ecfd1c,2ni2ihydwz,"Mediated Recog Prolific",1,29,2023-05-09T00:12:03+00:00,0.71413087844849,7,versionD_stim.csv,ReadVersion_Recog.csv,"Read Recog",Read4,HAPPY,CAR,Study2,U,37,44,Study,User,-,,Study/JOL,"Study Phase",,595,,,-1,-1,,,,1
63f7e1bb3866d96e37ecfd1c,2ni2ihydwz,"Mediated Recog Prolific",1,30,2023-05-09T00:12:04+00:00,0.92483115196228,7,versionD_stim.csv,ReadVersion_Recog.csv,"Read Recog",Read4,HORNET,STING,Study2,F,30,42,Study,User,-,,Study/JOL,"Study Phase",,808,,,-1,-1,,,,1
63f7e1bb3866d96e37ecfd1c,2ni2ihydwz,"Mediated Recog Prolific",1,31,2023-05-09T00:12:05+00:00,0.66464400291443,7,versionD_stim.csv,ReadVersion_Recog.csv,"Read Recog",Read4,PUSH,CLUTTER,Study2,U,41,29,Study,User,-,,Study/JOL,"Study Phase",,548,,,-1,-1,,,,1
63f7e1bb3866d96e37ecfd1c,2ni2ihydwz,"Mediated Recog Prolific",1,32,2023-05-09T00:12:06+00:00,1.3288300037384,7,versionD_stim.csv,ReadVersion_Recog.csv,"Read Recog",Read4,BRIDGE,WATER,Study2,F,35,35,Study,User,-,,Study/JOL,"Study Phase",,1216,,,-1,-1,,,,1
63f7e1bb3866d96e37ecfd1c,2ni2ihydwz,"Mediated Recog Prolific",1,33,2023-05-09T00:12:07+00:00,0.97631597518921,7,versionD_stim.csv,ReadVersion_Recog.csv,"Read Recog",Read4,DEATH,BUSINESS,Study2,U,44,36,Study,User,-,,Study/JOL,"Study Phase",,862,,,-1,-1,,,,1
63f7e1bb3866d96e37ecfd1c,2ni2ihydwz,"Mediated Recog Prolific",1,34,2023-05-09T00:12:08+00:00,0.65864300727844,7,versionD_stim.csv,ReadVersion_Recog.csv,"Read Recog",Read4,ARTERY,BRONZE,Study2,U,48,41,Study,User,-,,Study/JOL,"Study Phase",,545,,,-1,-1,,,,1
63f7e1bb3866d96e37ecfd1c,2ni2ihydwz,"Mediated Recog Prolific",1,35,2023-05-09T00:12:09+00:00,0.74747800827026,7,versionD_stim.csv,ReadVersion_Recog.csv,"Read Recog",Read4,PANTS,COLLAR,Study2,M,8,13,Study,User,-,,Study/JOL,"Study Phase",,631,,,-1,-1,,,,1
63f7e1bb3866d96e37ecfd1c,2ni2ihydwz,"Mediated Recog Prolific",1,36,2023-05-09T00:12:10+00:00,0.97042798995972,7,versionD_stim.csv,ReadVersion_Recog.csv,"Read Recog",Read4,SUGAR,RIDDLE,Study2,U,40,7,Study,User,-,,Study/JOL,"Study Phase",,857,,,-1,-1,,,,1
63f7e1bb3866d96e37ecfd1c,2ni2ihydwz,"Mediated Recog Prolific",1,37,2023-05-09T00:12:11+00:00,0.93994784355164,7,versionD_stim.csv,ReadVersion_Recog.csv,"Read Recog",Read4,REALITY,ISLAND,Study2,M,9,51,Study,User,-,,Study/JOL,"Study Phase",,825,,,-1,-1,,,,1
63f7e1bb3866d96e37ecfd1c,2ni2ihydwz,"Mediated Recog Prolific",1,38,2023-05-09T00:12:12+00:00,1.1684641838074,7,versionD_stim.csv,ReadVersion_Recog.csv,"Read Recog",Read4,FEUD,FIGHT,Study2,F,31,14,Study,User,-,,Study/JOL,"Study Phase",,1052,,,-1,-1,,,,1
63f7e1bb3866d96e37ecfd1c,2ni2ihydwz,"Mediated Recog Prolific",1,39,2023-05-09T00:12:12+00:00,0.77238583564758,7,versionD_stim.csv,ReadVersion_Recog.csv,"Read Recog",Read4,BOTH,OUNCE,Study2,U,47,47,Study,User,-,,Study/JOL,"Study Phase",,651,,,-1,-1,,,,1
63f7e1bb3866d96e37ecfd1c,2ni2ihydwz,"Mediated Recog Prolific",1,40,2023-05-09T00:12:13+00:00,0.74962711334229,7,versionD_stim.csv,ReadVersion_Recog.csv,"Read Recog",Read4,EYES,SMELL,Study2,M,10,27,Study,User,-,,Study/JOL,"Study Phase",,624,,,-1,-1,,,,1
63f7e1bb3866d96e37ecfd1c,2ni2ihydwz,"Mediated Recog Prolific",1,41,2023-05-09T00:12:14+00:00,0.48118996620178,7,versionD_stim.csv,ReadVersion_Recog.csv,"Read Recog",Read4,SOAP,DRINK,Study2,M,12,24,Study,User,-,,Study/JOL,"Study Phase",,367,,,-1,-1,,,,1
63f7e1bb3866d96e37ecfd1c,2ni2ihydwz,"Mediated Recog Prolific",1,42,2023-05-09T00:12:14+00:00,0.1846809387207,7,versionD_stim.csv,ReadVersion_Recog.csv,"Read Recog",Read4,NURSE,LAWYER,Study2,M,11,22,Study,User,-,,Study/JOL,"Study Phase",,70,,,-1,-1,,,,1
63f7e1bb3866d96e37ecfd1c,2ni2ihydwz,"Mediated Recog Prolific",1,43,2023-05-09T00:12:26+00:00,12.289212942123,7,versionD_stim.csv,ReadVersion_Recog.csv,"Read Recog",Read4,OVEN,BASKET,Study2,M,16,37,Study,User,-,,Study/JOL,"Study Phase",,12169,,,-1,-1,,,,0.476
63f7e1bb3866d96e37ecfd1c,2ni2ihydwz,"Mediated Recog Prolific",1,44,2023-05-09T00:12:27+00:00,0.82548117637634,7,versionD_stim.csv,ReadVersion_Recog.csv,"Read Recog",Read4,LEAGUE,BASEBALL,Study2,F,29,21,Study,User,-,,Study/JOL,"Study Phase",,703,,,-1,-1,,,,1
63f7e1bb3866d96e37ecfd1c,2ni2ihydwz,"Mediated Recog Prolific",1,45,2023-05-09T00:12:28+00:00,0.80191898345947,7,versionD_stim.csv,ReadVersion_Recog.csv,"Read Recog",Read4,MIRROR,CHILDREN,Study2,U,49,9,Study,User,-,,Study/JOL,"Study Phase",,677,,,-1,-1,,,,1
63f7e1bb3866d96e37ecfd1c,2ni2ihydwz,"Mediated Recog Prolific",1,46,2023-05-09T00:12:29+00:00,0.72012901306152,7,versionD_stim.csv,ReadVersion_Recog.csv,"Read Recog",Read4,CACTUS,PLANT,Study2,F,21,16,Study,User,-,,Study/JOL,"Study Phase",,592,,,-1,-1,,,,1
63f7e1bb3866d96e37ecfd1c,2ni2ihydwz,"Mediated Recog Prolific",1,47,2023-05-09T00:12:29+00:00,0.9099748134613,7,versionD_stim.csv,ReadVersion_Recog.csv,"Read Recog",Read4,HERD,COW,Study2,F,33,38,Study,User,-,,Study/JOL,"Study Phase",,791,,,-1,-1,,,,1
63f7e1bb3866d96e37ecfd1c,2ni2ihydwz,"Mediated Recog Prolific",1,48,2023-05-09T00:12:30+00:00,0.82843518257141,7,versionD_stim.csv,ReadVersion_Recog.csv,"Read Recog",Read4,SICK,HIDE,Study2,U,45,23,Study,User,-,,Study/JOL,"Study Phase",,714,,,-1,-1,,,,1
63f7e1bb3866d96e37ecfd1c,2ni2ihydwz,"Mediated Recog Prolific",1,49,2023-05-09T00:12:31+00:00,0.92609095573425,7,versionD_stim.csv,ReadVersion_Recog.csv,"Read Recog",Read4,KING,VASE,Study2,U,36,45,Study,User,-,,Study/JOL,"Study Phase",,807,,,-1,-1,,,,1
63f7e1bb3866d96e37ecfd1c,2ni2ihydwz,"Mediated Recog Prolific",1,50,2023-05-09T00:12:32+00:00,0.88519096374512,7,versionD_stim.csv,ReadVersion_Recog.csv,"Read Recog",Read4,LEASE,TOIL,Study2,U,46,33,Study,User,-,,Study/JOL,"Study Phase",,767,,,-1,-1,,,,1
63f7e1bb3866d96e37ecfd1c,2ni2ihydwz,"Mediated Recog Prolific",1,51,2023-05-09T00:12:33+00:00,0.77732992172241,7,versionD_stim.csv,ReadVersion_Recog.csv,"Read Recog",Read4,SCHOOL,STOP,Study2,M,7,11,Study,User,-,,Study/JOL,"Study Phase",,660,,,-1,-1,,,,1
63f7e1bb3866d96e37ecfd1c,2ni2ihydwz,"Mediated Recog Prolific",1,52,2023-05-09T00:12:34+00:00,0.77486801147461,7,versionD_stim.csv,ReadVersion_Recog.csv,"Read Recog",Read4,RAKE,SEED,Study2,M,14,10,Study,User,-,,Study/JOL,"Study Phase",,659,,,-1,-1,,,,1
63f7e1bb3866d96e37ecfd1c,2ni2ihydwz,"Mediated Recog Prolific",1,53,2023-05-09T00:12:34+00:00,0.7526581287384,7,versionD_stim.csv,ReadVersion_Recog.csv,"Read Recog",Read4,ICE,FROZEN,BUFFER4,Buffer,54,55,Study,User,-,,Study/JOL,BUFFER2,,635,,,-1,-1,,,,1
63f7e1bb3866d96e37ecfd1c,2ni2ihydwz,"Mediated Recog Prolific",1,54,2023-05-09T00:12:35+00:00,0.80079984664917,7,versionD_stim.csv,ReadVersion_Recog.csv,"Read Recog",Read4,SHRIMP,FISH,BUFFER4,Buffer,53,53,Study,User,-,,Study/JOL,BUFFER2,,684,,,-1,-1,,,,1
63f7e1bb3866d96e37ecfd1c,2ni2ihydwz,"Mediated Recog Prolific",1,55,2023-05-09T00:12:36+00:00,0.94704103469849,7,versionD_stim.csv,ReadVersion_Recog.csv,"Read Recog",Read4,CARROT,POTATO,BUFFER4,Buffer,51,54,Study,User,-,,Study/JOL,BUFFER2,,822,,,-1,-1,,,,1
63f7e1bb3866d96e37ecfd1c,2ni2ihydwz,"Mediated Recog Prolific",1,56,2023-05-09T00:12:37+00:00,0.59130311012268,7,versionD_stim.csv,ReadVersion_Recog.csv,"Read Recog",Read4,CAMP,ADVENTURE,BUFFER4,Buffer,55,52,Study,User,-,,Study/JOL,BUFFER2,,474,,,-1,-1,,,,1
63f7e1bb3866d96e37ecfd1c,2ni2ihydwz,"Mediated Recog Prolific",1,57,2023-05-09T00:12:38+00:00,0.97549390792847,7,versionD_stim.csv,ReadVersion_Recog.csv,"Read Recog",Read4,NOODLE,STRING,BUFFER4,Buffer,52,56,Study,User,-,,Study/JOL,BUFFER2,,856,,,-1,-1,,,,1
63f7e1bb3866d96e37ecfd1c,2ni2ihydwz,"Mediated Recog Prolific",1,58,2023-05-09T00:12:39+00:00,1.2570281028748,7,versionD_stim.csv,ReadVersion_Recog.csv,"Read Recog",Read4,,,,,,0,Instruct,User,-,"You have completed this section. Please press Enter.",Filler_Instruction,Instruct2,,1139,,,-1,-1,,,,1
63f7e1bb3866d96e37ecfd1c,2ni2ihydwz,"Mediated Recog Prolific",1,59,2023-05-09T00:14:39+00:00,120.20380997658,7,versionD_stim.csv,ReadVersion_Recog.csv,"Read Recog",Read4,,,,,,0,FreeRecall,120,120,"Please list the 50 US states in alphabetical order. The task will automatically advance to the next screen after two minutes.",,Filler1,,120002,"Alabama, Arkansas, Arizona, Alaska, Colorado, California, conitti Delaware, Florida, Georiga, Hawaii",0,27453,119910,0,0,,0.879
63f7e1bb3866d96e37ecfd1c,2ni2ihydwz,"Mediated Recog Prolific",1,60,2023-05-09T00:14:52+00:00,12.737154006958,7,versionD_stim.csv,ReadVersion_Recog.csv,"Read Recog",Read4,,,,,,0,Instruct,User,10,"Your memory will now be tested. You will be presented with a series of words that may or may not have been previously presented alongside another word. If the word on the screen was previously studied, please select YES. If the word was not studied, select NO. PLEASE DO NOT SKIP ITEMS! Click next when you are ready to begin.",,Instruc7982154d,,12600,,,-1,-1,,,,1
63f7e1bb3866d96e37ecfd1c,2ni2ihydwz,"Mediated Recog Prolific",1,61,2023-05-09T00:14:54+00:00,2.2616770267487,7,versionD_stim.csv,ReadVersion_Recog.csv,"Read Recog",Read4,,DANCE,RECOG,Control,68,131,Likert,User,1,"Was this item previously studied?",PRESENTED,Recog,1::2,2144,NO,28.571428571429,-1,-1,0,0,,1
63f7e1bb3866d96e37ecfd1c,2ni2ihydwz,"Mediated Recog Prolific",1,62,2023-05-09T00:14:56+00:00,1.9028220176697,7,versionD_stim.csv,ReadVersion_Recog.csv,"Read Recog",Read4,,SMELL,RECOG,Presented,110,111,Likert,User,1,"Was this item previously studied?",PRESENTED,Recog,1::2,1776,YES,25,-1,-1,0,0,,1
63f7e1bb3866d96e37ecfd1c,2ni2ihydwz,"Mediated Recog Prolific",1,63,2023-05-09T00:14:58+00:00,2.0836429595947,7,versionD_stim.csv,ReadVersion_Recog.csv,"Read Recog",Read4,,BRONZE,RECOG,Presented,148,73,Likert,User,1,"Was this item previously studied?",CONTROL,Recog,1::2,1963,NO,25,-1,-1,0,0,,1
63f7e1bb3866d96e37ecfd1c,2ni2ihydwz,"Mediated Recog Prolific",1,64,2023-05-09T00:14:59+00:00,1.1995890140533,7,versionD_stim.csv,ReadVersion_Recog.csv,"Read Recog",Read4,,PEAK,RECOG,Presented,118,76,Likert,User,1,"Was this item previously studied?",CONTROL,Recog,1::2,1076,YES,28.571428571429,-1,-1,0,0,,1
63f7e1bb3866d96e37ecfd1c,2ni2ihydwz,"Mediated Recog Prolific",1,65,2023-05-09T00:15:01+00:00,1.7298929691315,7,versionD_stim.csv,ReadVersion_Recog.csv,"Read Recog",Read4,,QUIET,RECOG,Control,63,59,Likert,User,1,"Was this item previously studied?",CONTROL,Recog,1::2,1608,NO,0,-1,-1,0,0,,1
63f7e1bb3866d96e37ecfd1c,2ni2ihydwz,"Mediated Recog Prolific",1,66,2023-05-09T00:15:03+00:00,1.4903829097748,7,versionD_stim.csv,ReadVersion_Recog.csv,"Read Recog",Read4,,CLEAN,RECOG,Control,83,118,Likert,User,1,"Was this item previously studied?",PRESENTED,Recog,1::2,1367,YES,25,-1,-1,0,0,,1
63f7e1bb3866d96e37ecfd1c,2ni2ihydwz,"Mediated Recog Prolific",1,67,2023-05-09T00:15:04+00:00,1.7243881225586,7,versionD_stim.csv,ReadVersion_Recog.csv,"Read Recog",Read4,,FEATHER,RECOG,Presented,113,60,Likert,User,1,"Was this item previously studied?",CONTROL,Recog,1::2,1601,YES,20,-1,-1,0,0,,1
63f7e1bb3866d96e37ecfd1c,2ni2ihydwz,"Mediated Recog Prolific",1,68,2023-05-09T00:15:06+00:00,1.4446878433228,7,versionD_stim.csv,ReadVersion_Recog.csv,"Read Recog",Read4,,FIGHT,RECOG,Presented,131,57,Likert,User,1,"Was this item previously studied?",CONTROL,Recog,1::2,1321,YES,0,-1,-1,0,0,,1
63f7e1bb3866d96e37ecfd1c,2ni2ihydwz,"Mediated Recog Prolific",1,69,2023-05-09T00:15:07+00:00,1.5262441635132,7,versionD_stim.csv,ReadVersion_Recog.csv,"Read Recog",Read4,,SEED,RECOG,Presented,114,74,Likert,User,1,"Was this item previously studied?",CONTROL,Recog,1::2,1376,YES,28.571428571429,-1,-1,0,0,,1
63f7e1bb3866d96e37ecfd1c,2ni2ihydwz,"Mediated Recog Prolific",1,70,2023-05-09T00:15:09+00:00,1.4918549060822,7,versionD_stim.csv,ReadVersion_Recog.csv,"Read Recog",Read4,,BIRD,RECOG,Control,81,127,Likert,User,1,"Was this item previously studied?",PRESENTED,Recog,1::2,1368,YES,0,-1,-1,0,0,,1
63f7e1bb3866d96e37ecfd1c,2ni2ihydwz,"Mediated Recog Prolific",1,71,2023-05-09T00:15:11+00:00,2.4104020595551,7,versionD_stim.csv,ReadVersion_Recog.csv,"Read Recog",Read4,,OUNCE,RECOG,Presented,147,126,Likert,User,1,"Was this item previously studied?",PRESENTED,Recog,1::2,2262,YES,25,-1,-1,0,0,,1
63f7e1bb3866d96e37ecfd1c,2ni2ihydwz,"Mediated Recog Prolific",1,72,2023-05-09T00:15:13+00:00,1.9818730354309,7,versionD_stim.csv,ReadVersion_Recog.csv,"Read Recog",Read4,,BOX,RECOG,Control,62,108,Likert,User,1,"Was this item previously studied?",PRESENTED,Recog,1::2,1857,NO,40,-1,-1,0,0,,1
63f7e1bb3866d96e37ecfd1c,2ni2ihydwz,"Mediated Recog Prolific",1,73,2023-05-09T00:15:15+00:00,2.1922700405121,7,versionD_stim.csv,ReadVersion_Recog.csv,"Read Recog",Read4,,CARPET,RECOG,Control,70,135,Likert,User,1,"Was this item previously studied?",PRESENTED,Recog,1::2,1635,NO,0,-1,-1,0,0,,1
63f7e1bb3866d96e37ecfd1c,2ni2ihydwz,"Mediated Recog Prolific",1,74,2023-05-09T00:15:17+00:00,1.6615269184113,7,versionD_stim.csv,ReadVersion_Recog.csv,"Read Recog",Read4,,STRIPES,RECOG,Control,61,105,Likert,User,1,"Was this item previously studied?",PRESENTED,Recog,1::2,1542,YES,40,-1,-1,0,0,,1
63f7e1bb3866d96e37ecfd1c,2ni2ihydwz,"Mediated Recog Prolific",1,75,2023-05-09T00:15:18+00:00,1.2852759361267,7,versionD_stim.csv,ReadVersion_Recog.csv,"Read Recog",Read4,,PAPER,RECOG,Presented,127,102,Likert,User,1,"Was this item previously studied?",PRESENTED,Recog,1::2,1169,YES,25,-1,-1,0,0,,1
63f7e1bb3866d96e37ecfd1c,2ni2ihydwz,"Mediated Recog Prolific",1,76,2023-05-09T00:15:20+00:00,1.7315969467163,7,versionD_stim.csv,ReadVersion_Recog.csv,"Read Recog",Read4,,LOVE,RECOG,Control,86,143,Likert,User,1,"Was this item previously studied?",PRESENTED,Recog,1::2,1568,NO,33.333333333333,-1,-1,0,0,,1
63f7e1bb3866d96e37ecfd1c,2ni2ihydwz,"Mediated Recog Prolific",1,77,2023-05-09T00:15:22+00:00,1.5613720417023,7,versionD_stim.csv,ReadVersion_Recog.csv,"Read Recog",Read4,,TOIL,RECOG,Presented,146,137,Likert,User,1,"Was this item previously studied?",PRESENTED,Recog,1::2,1440,YES,0,-1,-1,0,0,,1
63f7e1bb3866d96e37ecfd1c,2ni2ihydwz,"Mediated Recog Prolific",1,78,2023-05-09T00:15:23+00:00,1.5257411003113,7,versionD_stim.csv,ReadVersion_Recog.csv,"Read Recog",Read4,,KNOB,RECOG,Presented,119,83,Likert,User,1,"Was this item previously studied?",CONTROL,Recog,1::2,1405,YES,0,-1,-1,0,0,,1
63f7e1bb3866d96e37ecfd1c,2ni2ihydwz,"Mediated Recog Prolific",1,79,2023-05-09T00:15:25+00:00,1.4025049209595,7,versionD_stim.csv,ReadVersion_Recog.csv,"Read Recog",Read4,,SILK,RECOG,Control,65,91,Likert,User,1,"Was this item previously studied?",CONTROL,Recog,1::2,1281,YES,28.571428571429,-1,-1,0,0,,1
63f7e1bb3866d96e37ecfd1c,2ni2ihydwz,"Mediated Recog Prolific",1,80,2023-05-09T00:15:26+00:00,1.7523679733276,7,versionD_stim.csv,ReadVersion_Recog.csv,"Read Recog",Read4,,DRINK,RECOG,Control,87,98,Likert,User,1,"Was this item previously studied?",CONTROL,Recog,1::2,1630,NO,28.571428571429,-1,-1,0,0,,1
63f7e1bb3866d96e37ecfd1c,2ni2ihydwz,"Mediated Recog Prolific",1,81,2023-05-09T00:15:29+00:00,2.6354329586029,7,versionD_stim.csv,ReadVersion_Recog.csv,"Read Recog",Read4,,CUT,RECOG,Presented,122,136,Likert,User,1,"Was this item previously studied?",PRESENTED,Recog,1::2,2482,NO,0,-1,-1,0,0,,1
63f7e1bb3866d96e37ecfd1c,2ni2ihydwz,"Mediated Recog Prolific",1,82,2023-05-09T00:15:30+00:00,1.3384311199188,7,versionD_stim.csv,ReadVersion_Recog.csv,"Read Recog",Read4,,BUG,RECOG,Presented,134,116,Likert,User,1,"Was this item previously studied?",PRESENTED,Recog,1::2,1206,YES,0,-1,-1,0,0,,1
63f7e1bb3866d96e37ecfd1c,2ni2ihydwz,"Mediated Recog Prolific",1,83,2023-05-09T00:15:32+00:00,1.2844860553741,7,versionD_stim.csv,ReadVersion_Recog.csv,"Read Recog",Read4,,SACK,RECOG,Presented,142,80,Likert,User,1,"Was this item previously studied?",CONTROL,Recog,1::2,1166,YES,28.571428571429,-1,-1,0,0,,1
63f7e1bb3866d96e37ecfd1c,2ni2ihydwz,"Mediated Recog Prolific",1,84,2023-05-09T00:15:33+00:00,1.8306608200073,7,versionD_stim.csv,ReadVersion_Recog.csv,"Read Recog",Read4,,STING,RECOG,Presented,130,63,Likert,User,1,"Was this item previously studied?",CONTROL,Recog,1::2,1712,YES,25,-1,-1,0,0,,1
63f7e1bb3866d96e37ecfd1c,2ni2ihydwz,"Mediated Recog Prolific",1,85,2023-05-09T00:15:35+00:00,1.6014981269836,7,versionD_stim.csv,ReadVersion_Recog.csv,"Read Recog",Read4,,COLD,RECOG,Presented,132,114,Likert,User,1,"Was this item previously studied?",PRESENTED,Recog,1::2,1482,YES,0,-1,-1,0,0,,1
63f7e1bb3866d96e37ecfd1c,2ni2ihydwz,"Mediated Recog Prolific",1,86,2023-05-09T00:15:37+00:00,1.5940809249878,7,versionD_stim.csv,ReadVersion_Recog.csv,"Read Recog",Read4,,BASEBALL,RECOG,Presented,129,117,Likert,User,1,"Was this item previously studied?",PRESENTED,Recog,1::2,1469,,,-1,-1,,,,1
63f7e1bb3866d96e37ecfd1c,2ni2ihydwz,"Mediated Recog Prolific",1,87,2023-05-09T00:15:40+00:00,3.5216491222382,7,versionD_stim.csv,ReadVersion_Recog.csv,"Read Recog",Read4,,DRINK,RECOG,Presented,112,77,Likert,User,1,"Was this item previously studied?",CONTROL,Recog,1::2,3394,NO,28.571428571429,-1,-1,0,0,,1
63f7e1bb3866d96e37ecfd1c,2ni2ihydwz,"Mediated Recog Prolific",1,88,2023-05-09T00:15:43+00:00,3.2792208194733,7,versionD_stim.csv,ReadVersion_Recog.csv,"Read Recog",Read4,,CAR,RECOG,Presented,137,107,Likert,User,1,"Was this item previously studied?",PRESENTED,Recog,1::2,3159,YES,0,-1,-1,0,0,,1
63f7e1bb3866d96e37ecfd1c,2ni2ihydwz,"Mediated Recog Prolific",1,89,2023-05-09T00:15:45+00:00,1.7571911811829,7,versionD_stim.csv,ReadVersion_Recog.csv,"Read Recog",Read4,,BELT,RECOG,Control,101,58,Likert,User,1,"Was this item previously studied?",CONTROL,Recog,1::2,1630,NO,0,-1,-1,0,0,,1
63f7e1bb3866d96e37ecfd1c,2ni2ihydwz,"Mediated Recog Prolific",1,90,2023-05-09T00:15:47+00:00,1.9213478565216,7,versionD_stim.csv,ReadVersion_Recog.csv,"Read Recog",Read4,,ROD,RECOG,Control,100,64,Likert,User,1,"Was this item previously studied?",CONTROL,Recog,1::2,1796,NO,40,-1,-1,0,0,,1
63f7e1bb3866d96e37ecfd1c,2ni2ihydwz,"Mediated Recog Prolific",1,91,2023-05-09T00:15:49+00:00,1.4814710617065,7,versionD_stim.csv,ReadVersion_Recog.csv,"Read Recog",Read4,,WOLF,RECOG,Presented,138,139,Likert,User,1,"Was this item previously studied?",PRESENTED,Recog,1::2,1365,YES,0,-1,-1,0,0,,1
63f7e1bb3866d96e37ecfd1c,2ni2ihydwz,"Mediated Recog Prolific",1,92,2023-05-09T00:15:50+00:00,1.4896900653839,7,versionD_stim.csv,ReadVersion_Recog.csv,"Read Recog",Read4,,CLOTH,RECOG,Control,92,132,Likert,User,1,"Was this item previously studied?",PRESENTED,Recog,1::2,1364,YES,0,-1,-1,0,0,,1
63f7e1bb3866d96e37ecfd1c,2ni2ihydwz,"Mediated Recog Prolific",1,93,2023-05-09T00:15:51+00:00,1.4721598625183,7,versionD_stim.csv,ReadVersion_Recog.csv,"Read Recog",Read4,,VASE,RECOG,Presented,136,94,Likert,User,1,"Was this item previously studied?",CONTROL,Recog,1::2,1353,YES,28.571428571429,-1,-1,0,0,,1
63f7e1bb3866d96e37ecfd1c,2ni2ihydwz,"Mediated Recog Prolific",1,94,2023-05-09T00:15:53+00:00,1.4125180244446,7,versionD_stim.csv,ReadVersion_Recog.csv,"Read Recog",Read4,,CLOTHES,RECOG,Presented,124,68,Likert,User,1,"Was this item previously studied?",CONTROL,Recog,1::2,1295,YES,40,-1,-1,0,0,,1
63f7e1bb3866d96e37ecfd1c,2ni2ihydwz,"Mediated Recog Prolific",1,95,2023-05-09T00:15:54+00:00,1.5989401340485,7,versionD_stim.csv,ReadVersion_Recog.csv,"Read Recog",Read4,,SNOW,RECOG,Presented,106,110,Likert,User,1,"Was this item previously studied?",PRESENTED,Recog,1::2,1478,YES,28.571428571429,-1,-1,0,0,,1
63f7e1bb3866d96e37ecfd1c,2ni2ihydwz,"Mediated Recog Prolific",1,96,2023-05-09T00:15:56+00:00,1.7196178436279,7,versionD_stim.csv,ReadVersion_Recog.csv,"Read Recog",Read4,,RIDDLE,RECOG,Presented,140,96,Likert,User,1,"Was this item previously studied?",CONTROL,Recog,1::2,1604,NO,0,-1,-1,0,0,,1
63f7e1bb3866d96e37ecfd1c,2ni2ihydwz,"Mediated Recog Prolific",1,97,2023-05-09T00:15:59+00:00,2.4655799865723,7,versionD_stim.csv,ReadVersion_Recog.csv,"Read Recog",Read4,,COTTON,RECOG,Control,75,72,Likert,User,1,"Was this item previously studied?",CONTROL,Recog,1::2,2346,YES,0,-1,-1,0,0,,1
63f7e1bb3866d96e37ecfd1c,2ni2ihydwz,"Mediated Recog Prolific",1,98,2023-05-09T00:16:01+00:00,2.3567070960999,7,versionD_stim.csv,ReadVersion_Recog.csv,"Read Recog",Read4,,MUSCLE,RECOG,Presented,120,103,Likert,User,1,"Was this item previously studied?",PRESENTED,Recog,1::2,2237,NO,0,-1,-1,0,0,,1
63f7e1bb3866d96e37ecfd1c,2ni2ihydwz,"Mediated Recog Prolific",1,99,2023-05-09T00:16:03+00:00,1.5032398700714,7,versionD_stim.csv,ReadVersion_Recog.csv,"Read Recog",Read4,,PHONE,RECOG,Control,97,97,Likert,User,1,"Was this item previously studied?",CONTROL,Recog,1::2,1382,,,-1,-1,,,,1
63f7e1bb3866d96e37ecfd1c,2ni2ihydwz,"Mediated Recog Prolific",1,100,2023-05-09T00:16:04+00:00,1.5997750759125,7,versionD_stim.csv,ReadVersion_Recog.csv,"Read Recog",Read4,,SHAKE,RECOG,Control,98,133,Likert,User,1,"Was this item previously studied?",PRESENTED,Recog,1::2,1482,YES,25,-1,-1,0,0,,1
63f7e1bb3866d96e37ecfd1c,2ni2ihydwz,"Mediated Recog Prolific",1,101,2023-05-09T00:16:07+00:00,2.5096380710602,7,versionD_stim.csv,ReadVersion_Recog.csv,"Read Recog",Read4,,TRASH,RECOG,Control,76,82,Likert,User,1,"Was this item previously studied?",CONTROL,Recog,1::2,2388,YES,25,-1,-1,0,0,,1
63f7e1bb3866d96e37ecfd1c,2ni2ihydwz,"Mediated Recog Prolific",1,102,2023-05-09T00:16:09+00:00,2.6372499465942,7,versionD_stim.csv,ReadVersion_Recog.csv,"Read Recog",Read4,,BOTTLE,RECOG,Control,71,100,Likert,User,1,"Was this item previously studied?",CONTROL,Recog,1::2,2517,NO,25,-1,-1,0,0,,1
63f7e1bb3866d96e37ecfd1c,2ni2ihydwz,"Mediated Recog Prolific",1,103,2023-05-09T00:16:11+00:00,1.6980440616608,7,versionD_stim.csv,ReadVersion_Recog.csv,"Read Recog",Read4,,HIDE,RECOG,Presented,145,101,Likert,User,1,"Was this item previously studied?",CONTROL,Recog,1::2,1583,YES,28.571428571429,-1,-1,0,0,,1
63f7e1bb3866d96e37ecfd1c,2ni2ihydwz,"Mediated Recog Prolific",1,104,2023-05-09T00:16:13+00:00,1.9178159236908,7,versionD_stim.csv,ReadVersion_Recog.csv,"Read Recog",Read4,,MAROON,RECOG,Control,91,138,Likert,User,1,"Was this item previously studied?",PRESENTED,Recog,1::2,1787,NO,25,-1,-1,0,0,,1
63f7e1bb3866d96e37ecfd1c,2ni2ihydwz,"Mediated Recog Prolific",1,105,2023-05-09T00:16:14+00:00,1.3608391284943,7,versionD_stim.csv,ReadVersion_Recog.csv,"Read Recog",Read4,,ACCIDENT,RECOG,Presented,139,123,Likert,User,1,"Was this item previously studied?",PRESENTED,Recog,1::2,1237,YES,18.181818181818,-1,-1,0,0,,1
63f7e1bb3866d96e37ecfd1c,2ni2ihydwz,"Mediated Recog Prolific",1,106,2023-05-09T00:16:16+00:00,1.4212968349457,7,versionD_stim.csv,ReadVersion_Recog.csv,"Read Recog",Read4,,STEAK,RECOG,Control,93,71,Likert,User,1,"Was this item previously studied?",CONTROL,Recog,1::2,1291,YES,25,-1,-1,0,0,,1
63f7e1bb3866d96e37ecfd1c,2ni2ihydwz,"Mediated Recog Prolific",1,107,2023-05-09T00:16:17+00:00,1.4731531143188,7,versionD_stim.csv,ReadVersion_Recog.csv,"Read Recog",Read4,,MORNING,RECOG,Control,103,61,Likert,User,1,"Was this item previously studied?",CONTROL,Recog,1::2,1350,YES,0,-1,-1,0,0,,1
63f7e1bb3866d96e37ecfd1c,2ni2ihydwz,"Mediated Recog Prolific",1,108,2023-05-09T00:16:19+00:00,1.9912729263306,7,versionD_stim.csv,ReadVersion_Recog.csv,"Read Recog",Read4,,TICK,RECOG,Control,102,85,Likert,User,1,"Was this item previously studied?",CONTROL,Recog,1::2,1852,NO,0,-1,-1,0,0,,1
63f7e1bb3866d96e37ecfd1c,2ni2ihydwz,"Mediated Recog Prolific",1,109,2023-05-09T00:16:21+00:00,1.7184629440308,7,versionD_stim.csv,ReadVersion_Recog.csv,"Read Recog",Read4,,HORN,RECOG,Presented,143,128,Likert,User,1,"Was this item previously studied?",PRESENTED,Recog,1::2,1594,YES,0,-1,-1,0,0,,1
63f7e1bb3866d96e37ecfd1c,2ni2ihydwz,"Mediated Recog Prolific",1,110,2023-05-09T00:16:23+00:00,1.6659321784973,7,versionD_stim.csv,ReadVersion_Recog.csv,"Read Recog",Read4,,PIE,RECOG,Control,64,67,Likert,User,1,"Was this item previously studied?",CONTROL,Recog,1::2,1547,NO,0,-1,-1,0,0,,1
63f7e1bb3866d96e37ecfd1c,2ni2ihydwz,"Mediated Recog Prolific",1,111,2023-05-09T00:16:24+00:00,1.6216208934784,7,versionD_stim.csv,ReadVersion_Recog.csv,"Read Recog",Read4,,DONKEY,RECOG,Control,85,75,Likert,User,1,"Was this item previously studied?",CONTROL,Recog,1::2,1492,YES,22.222222222222,-1,-1,0,0,,1
63f7e1bb3866d96e37ecfd1c,2ni2ihydwz,"Mediated Recog Prolific",1,112,2023-05-09T00:16:26+00:00,1.3977000713348,7,versionD_stim.csv,ReadVersion_Recog.csv,"Read Recog",Read4,,HAND,RECOG,Control,104,95,Likert,User,1,"Was this item previously studied?",CONTROL,Recog,1::2,1279,YES,0,-1,-1,0,0,,1
63f7e1bb3866d96e37ecfd1c,2ni2ihydwz,"Mediated Recog Prolific",1,113,2023-05-09T00:16:28+00:00,2.6145069599152,7,versionD_stim.csv,ReadVersion_Recog.csv,"Read Recog",Read4,,CHARM,RECOG,Control,95,124,Likert,User,1,"Was this item previously studied?",PRESENTED,Recog,1::2,2484,NO,0,-1,-1,0,0,,1
63f7e1bb3866d96e37ecfd1c,2ni2ihydwz,"Mediated Recog Prolific",1,114,2023-05-09T00:16:30+00:00,1.3679559230804,7,versionD_stim.csv,ReadVersion_Recog.csv,"Read Recog",Read4,,SMELL,RECOG,Presented,128,109,Likert,User,1,"Was this item previously studied?",PRESENTED,Recog,1::2,1249,YES,25,-1,-1,0,0,,1
63f7e1bb3866d96e37ecfd1c,2ni2ihydwz,"Mediated Recog Prolific",1,115,2023-05-09T00:16:31+00:00,1.4046750068665,7,versionD_stim.csv,ReadVersion_Recog.csv,"Read Recog",Read4,,FIRE,RECOG,Presented,126,115,Likert,User,1,"Was this item previously studied?",PRESENTED,Recog,1::2,1279,YES,28.571428571429,-1,-1,0,0,,1
63f7e1bb3866d96e37ecfd1c,2ni2ihydwz,"Mediated Recog Prolific",1,116,2023-05-09T00:16:32+00:00,1.3034660816193,7,versionD_stim.csv,ReadVersion_Recog.csv,"Read Recog",Read4,,CARD,RECOG,Control,88,134,Likert,User,1,"Was this item previously studied?",PRESENTED,Recog,1::2,1164,YES,0,-1,-1,0,0,,1
63f7e1bb3866d96e37ecfd1c,2ni2ihydwz,"Mediated Recog Prolific",1,117,2023-05-09T00:16:34+00:00,1.5901999473572,7,versionD_stim.csv,ReadVersion_Recog.csv,"Read Recog",Read4,,BANG,RECOG,Control,105,145,Likert,User,1,"Was this item previously studied?",PRESENTED,Recog,1::2,1466,YES,0,-1,-1,0,0,,1
63f7e1bb3866d96e37ecfd1c,2ni2ihydwz,"Mediated Recog Prolific",1,118,2023-05-09T00:16:36+00:00,1.9306089878082,7,versionD_stim.csv,ReadVersion_Recog.csv,"Read Recog",Read4,,BUSINESS,RECOG,Presented,144,140,Likert,User,1,"Was this item previously studied?",PRESENTED,Recog,1::2,1813,YES,36.363636363636,-1,-1,0,0,,1
63f7e1bb3866d96e37ecfd1c,2ni2ihydwz,"Mediated Recog Prolific",1,119,2023-05-09T00:16:37+00:00,1.6077089309692,7,versionD_stim.csv,ReadVersion_Recog.csv,"Read Recog",Read4,,ISLAND,RECOG,Presented,109,78,Likert,User,1,"Was this item previously studied?",CONTROL,Recog,1::2,1491,NO,25,-1,-1,0,0,,1
63f7e1bb3866d96e37ecfd1c,2ni2ihydwz,"Mediated Recog Prolific",1,120,2023-05-09T00:16:39+00:00,1.6014971733093,7,versionD_stim.csv,ReadVersion_Recog.csv,"Read Recog",Read4,,FICTION,RECOG,Control,99,86,Likert,User,1,"Was this item previously studied?",CONTROL,Recog,1::2,1482,YES,0,-1,-1,0,0,,1
63f7e1bb3866d96e37ecfd1c,2ni2ihydwz,"Mediated Recog Prolific",1,121,2023-05-09T00:16:41+00:00,1.5509660243988,7,versionD_stim.csv,ReadVersion_Recog.csv,"Read Recog",Read4,,CHILDREN,RECOG,Presented,149,70,Likert,User,1,"Was this item previously studied?",CONTROL,Recog,1::2,1433,YES,18.181818181818,-1,-1,0,0,,1
63f7e1bb3866d96e37ecfd1c,2ni2ihydwz,"Mediated Recog Prolific",1,122,2023-05-09T00:16:42+00:00,1.7891268730164,7,versionD_stim.csv,ReadVersion_Recog.csv,"Read Recog",Read4,,PLANT,RECOG,Presented,121,65,Likert,User,1,"Was this item previously studied?",CONTROL,Recog,1::2,1672,YES,0,-1,-1,0,0,,1
63f7e1bb3866d96e37ecfd1c,2ni2ihydwz,"Mediated Recog Prolific",1,123,2023-05-09T00:16:44+00:00,1.7234809398651,7,versionD_stim.csv,ReadVersion_Recog.csv,"Read Recog",Read4,,CLUTTER,RECOG,Presented,141,121,Likert,User,1,"Was this item previously studied?",PRESENTED,Recog,1::2,1601,NO,0,-1,-1,0,0,,1
63f7e1bb3866d96e37ecfd1c,2ni2ihydwz,"Mediated Recog Prolific",1,124,2023-05-09T00:16:46+00:00,2.0975902080536,7,versionD_stim.csv,ReadVersion_Recog.csv,"Read Recog",Read4,,SENTENCE,RECOG,Control,82,89,Likert,User,1,"Was this item previously studied?",CONTROL,Recog,1::2,1982,YES,18.181818181818,-1,-1,0,0,,1
63f7e1bb3866d96e37ecfd1c,2ni2ihydwz,"Mediated Recog Prolific",1,125,2023-05-09T00:16:48+00:00,1.619687795639,7,versionD_stim.csv,ReadVersion_Recog.csv,"Read Recog",Read4,,FLOWER,RECOG,Control,89,69,Likert,User,1,"Was this item previously studied?",CONTROL,Recog,1::2,1501,YES,22.222222222222,-1,-1,0,0,,1
63f7e1bb3866d96e37ecfd1c,2ni2ihydwz,"Mediated Recog Prolific",1,126,2023-05-09T00:16:49+00:00,1.6054661273956,7,versionD_stim.csv,ReadVersion_Recog.csv,"Read Recog",Read4,,HEAD,RECOG,Control,78,90,Likert,User,1,"Was this item previously studied?",CONTROL,Recog,1::2,1490,NO,0,-1,-1,0,0,,1
63f7e1bb3866d96e37ecfd1c,2ni2ihydwz,"Mediated Recog Prolific",1,127,2023-05-09T00:16:51+00:00,1.3899948596954,7,versionD_stim.csv,ReadVersion_Recog.csv,"Read Recog",Read4,,BOUNCE,RECOG,Control,67,92,Likert,User,1,"Was this item previously studied?",CONTROL,Recog,1::2,1268,YES,22.222222222222,-1,-1,0,0,,1
63f7e1bb3866d96e37ecfd1c,2ni2ihydwz,"Mediated Recog Prolific",1,128,2023-05-09T00:16:52+00:00,1.5814960002899,7,versionD_stim.csv,ReadVersion_Recog.csv,"Read Recog",Read4,,FISH,RECOG,Control,90,112,Likert,User,1,"Was this item previously studied?",PRESENTED,Recog,1::2,1465,YES,28.571428571429,-1,-1,0,0,,1
63f7e1bb3866d96e37ecfd1c,2ni2ihydwz,"Mediated Recog Prolific",1,129,2023-05-09T00:16:54+00:00,1.4702060222626,7,versionD_stim.csv,ReadVersion_Recog.csv,"Read Recog",Read4,,THIGH,RECOG,Presented,117,119,Likert,User,1,"Was this item previously studied?",PRESENTED,Recog,1::2,1354,YES,0,-1,-1,0,0,,1
63f7e1bb3866d96e37ecfd1c,2ni2ihydwz,"Mediated Recog Prolific",1,130,2023-05-09T00:16:55+00:00,1.2894291877747,7,versionD_stim.csv,ReadVersion_Recog.csv,"Read Recog",Read4,,PLANT,RECOG,Control,80,104,Likert,User,1,"Was this item previously studied?",PRESENTED,Recog,1::2,1168,YES,0,-1,-1,0,0,,1
63f7e1bb3866d96e37ecfd1c,2ni2ihydwz,"Mediated Recog Prolific",1,131,2023-05-09T00:16:57+00:00,1.4722378253937,7,versionD_stim.csv,ReadVersion_Recog.csv,"Read Recog",Read4,,HAMMER,RECOG,Presented,123,79,Likert,User,1,"Was this item previously studied?",CONTROL,Recog,1::2,1352,YES,22.222222222222,-1,-1,0,0,,1
63f7e1bb3866d96e37ecfd1c,2ni2ihydwz,"Mediated Recog Prolific",1,132,2023-05-09T00:16:58+00:00,1.2560920715332,7,versionD_stim.csv,ReadVersion_Recog.csv,"Read Recog",Read4,,WHEEL,RECOG,Control,69,142,Likert,User,1,"Was this item previously studied?",PRESENTED,Recog,1::2,1134,YES,25,-1,-1,0,0,,1
63f7e1bb3866d96e37ecfd1c,2ni2ihydwz,"Mediated Recog Prolific",1,133,2023-05-09T00:16:59+00:00,1.3742980957031,7,versionD_stim.csv,ReadVersion_Recog.csv,"Read Recog",Read4,,LAWYER,RECOG,Presented,111,120,Likert,User,1,"Was this item previously studied?",PRESENTED,Recog,1::2,1256,NO,0,-1,-1,0,0,,1
63f7e1bb3866d96e37ecfd1c,2ni2ihydwz,"Mediated Recog Prolific",1,134,2023-05-09T00:17:01+00:00,1.3151569366455,7,versionD_stim.csv,ReadVersion_Recog.csv,"Read Recog",Read4,,WATER,RECOG,Presented,135,130,Likert,User,1,"Was this item previously studied?",PRESENTED,Recog,1::2,1192,YES,25,-1,-1,0,0,,1
63f7e1bb3866d96e37ecfd1c,2ni2ihydwz,"Mediated Recog Prolific",1,135,2023-05-09T00:17:02+00:00,1.5312299728394,7,versionD_stim.csv,ReadVersion_Recog.csv,"Read Recog",Read4,,COW,RECOG,Presented,133,81,Likert,User,1,"Was this item previously studied?",CONTROL,Recog,1::2,1413,YES,0,-1,-1,0,0,,1
63f7e1bb3866d96e37ecfd1c,2ni2ihydwz,"Mediated Recog Prolific",1,136,2023-05-09T00:17:03+00:00,1.4045839309692,7,versionD_stim.csv,ReadVersion_Recog.csv,"Read Recog",Read4,,CAVE,RECOG,Presented,115,62,Likert,User,1,"Was this item previously studied?",CONTROL,Recog,1::2,1284,YES,28.571428571429,-1,-1,0,0,,1
63f7e1bb3866d96e37ecfd1c,2ni2ihydwz,"Mediated Recog Prolific",1,137,2023-05-09T00:17:05+00:00,1.3036589622498,7,versionD_stim.csv,ReadVersion_Recog.csv,"Read Recog",Read4,,DONKEY,RECOG,Control,79,141,Likert,User,1,"Was this item previously studied?",PRESENTED,Recog,1::2,1179,YES,22.222222222222,-1,-1,0,0,,1
63f7e1bb3866d96e37ecfd1c,2ni2ihydwz,"Mediated Recog Prolific",1,138,2023-05-09T00:17:07+00:00,2.2865271568298,7,versionD_stim.csv,ReadVersion_Recog.csv,"Read Recog",Read4,,RED,RECOG,Presented,125,144,Likert,User,1,"Was this item previously studied?",PRESENTED,Recog,1::2,2169,NO,0,-1,-1,0,0,,1
63f7e1bb3866d96e37ecfd1c,2ni2ihydwz,"Mediated Recog Prolific",1,139,2023-05-09T00:17:09+00:00,1.8916158676147,7,versionD_stim.csv,ReadVersion_Recog.csv,"Read Recog",Read4,,MONEY,RECOG,Control,77,129,Likert,User,1,"Was this item previously studied?",PRESENTED,Recog,1::2,1773,YES,25,-1,-1,0,0,,1
63f7e1bb3866d96e37ecfd1c,2ni2ihydwz,"Mediated Recog Prolific",1,140,2023-05-09T00:17:11+00:00,2.0285761356354,7,versionD_stim.csv,ReadVersion_Recog.csv,"Read Recog",Read4,,HAIR,RECOG,Control,74,122,Likert,User,1,"Was this item previously studied?",PRESENTED,Recog,1::2,1904,YES,0,-1,-1,0,0,,1
63f7e1bb3866d96e37ecfd1c,2ni2ihydwz,"Mediated Recog Prolific",1,141,2023-05-09T00:17:13+00:00,2.056706905365,7,versionD_stim.csv,ReadVersion_Recog.csv,"Read Recog",Read4,,FINGER,RECOG,Control,72,113,Likert,User,1,"Was this item previously studied?",PRESENTED,Recog,1::2,1936,YES,22.222222222222,-1,-1,0,0,,1
63f7e1bb3866d96e37ecfd1c,2ni2ihydwz,"Mediated Recog Prolific",1,142,2023-05-09T00:17:15+00:00,1.6352550983429,7,versionD_stim.csv,ReadVersion_Recog.csv,"Read Recog",Read4,,SLEEP,RECOG,Control,84,93,Likert,User,1,"Was this item previously studied?",CONTROL,Recog,1::2,1518,NO,0,-1,-1,0,0,,1
63f7e1bb3866d96e37ecfd1c,2ni2ihydwz,"Mediated Recog Prolific",1,143,2023-05-09T00:17:16+00:00,1.8071458339691,7,versionD_stim.csv,ReadVersion_Recog.csv,"Read Recog",Read4,,ELECTION,RECOG,Control,94,146,Likert,User,1,"Was this item previously studied?",PRESENTED,Recog,1::2,1688,YES,18.181818181818,-1,-1,0,0,,1
63f7e1bb3866d96e37ecfd1c,2ni2ihydwz,"Mediated Recog Prolific",1,144,2023-05-09T00:17:18+00:00,1.203497171402,7,versionD_stim.csv,ReadVersion_Recog.csv,"Read Recog",Read4,,BASKET,RECOG,Presented,116,106,Likert,User,1,"Was this item previously studied?",PRESENTED,Recog,1::2,1087,YES,22.222222222222,-1,-1,0,0,,1
63f7e1bb3866d96e37ecfd1c,2ni2ihydwz,"Mediated Recog Prolific",1,145,2023-05-09T00:17:19+00:00,1.7350130081177,7,versionD_stim.csv,ReadVersion_Recog.csv,"Read Recog",Read4,,KEYS,RECOG,Control,96,99,Likert,User,1,"Was this item previously studied?",CONTROL,Recog,1::2,1617,NO,0,-1,-1,0,0,,1
63f7e1bb3866d96e37ecfd1c,2ni2ihydwz,"Mediated Recog Prolific",1,146,2023-05-09T00:17:21+00:00,1.557788848877,7,versionD_stim.csv,ReadVersion_Recog.csv,"Read Recog",Read4,,STOP,RECOG,Presented,107,84,Likert,User,1,"Was this item previously studied?",CONTROL,Recog,1::2,1441,YES,28.571428571429,-1,-1,0,0,,1
63f7e1bb3866d96e37ecfd1c,2ni2ihydwz,"Mediated Recog Prolific",1,147,2023-05-09T00:17:22+00:00,1.3850979804993,7,versionD_stim.csv,ReadVersion_Recog.csv,"Read Recog",Read4,,DARK,RECOG,Control,73,87,Likert,User,1,"Was this item previously studied?",CONTROL,Recog,1::2,1269,YES,0,-1,-1,0,0,,1
63f7e1bb3866d96e37ecfd1c,2ni2ihydwz,"Mediated Recog Prolific",1,148,2023-05-09T00:17:24+00:00,1.8905789852142,7,versionD_stim.csv,ReadVersion_Recog.csv,"Read Recog",Read4,,LEG,RECOG,Presented,150,125,Likert,User,1,"Was this item previously studied?",PRESENTED,Recog,1::2,1771,NO,0,-1,-1,0,0,,1
63f7e1bb3866d96e37ecfd1c,2ni2ihydwz,"Mediated Recog Prolific",1,149,2023-05-09T00:17:26+00:00,1.6645691394806,7,versionD_stim.csv,ReadVersion_Recog.csv,"Read Recog",Read4,,SYRUP,RECOG,Control,66,88,Likert,User,1,"Was this item previously studied?",CONTROL,Recog,1::2,1542,NO,0,-1,-1,0,0,,1
63f7e1bb3866d96e37ecfd1c,2ni2ihydwz,"Mediated Recog Prolific",1,150,2023-05-09T00:17:28+00:00,1.6323690414429,7,versionD_stim.csv,ReadVersion_Recog.csv,"Read Recog",Read4,,COLLAR,RECOG,Presented,108,66,Likert,User,1,"Was this item previously studied?",CONTROL,Recog,1::2,1492,NO,25,-1,-1,0,0,,1
63f7e1bb3866d96e37ecfd1c,2ni2ihydwz,"Mediated Recog Prolific",1,151,2023-05-09T00:17:29+00:00,1.5037188529968,7,versionD_stim.csv,ReadVersion_Recog.csv,"Read Recog",Read4,,,,,,0,Instruct,User,-,"You have completed this section. Please press Enter.",,Instruct7,,1385,,,-1,-1,,,,1
63f7e1bb3866d96e37ecfd1c,2ni2ihydwz,"Mediated Recog Prolific",1,152,2023-05-09T00:17:31+00:00,2.1778380870819,7,versionD_stim.csv,ReadVersion_Recog.csv,"Read Recog",Read4,,,,,,0,Instruct,User,-,"The following screen will ask you a few questions abour your experience today. You must complete these questions to receive credit.",,Instruct8,,2054,,,-1,-1,,,,1
