Username,ID,ExperimentName,Session,Trial,Date,TimeDif,"Condition Number","Stimuli File","Order File","Condition Description","Condition Notes",Stimuli*Cue,Stimuli*Answer,Stimuli*Shuffle,"Stimuli*Stimuli Notes",Stimuli*Value,Procedure*Item,"Procedure*Trial Type","Procedure*Max Time","Procedure*Min Time",Procedure*Text,"Procedure*Procedure Notes",Procedure*Shuffle,Procedure*,Response*RT,Response*Response,Response*Accuracy,Response*RTfirst,Response*RTlast,Response*strictAcc,Response*lenientAcc,Response*focus,Response*Focus
6447a13cbe4aec52e4db6b1a,gkqco74jlb,"Mediated Recog Prolific",1,1,2023-05-08T21:03:08+00:00,6.3578870296478,7,versionD_stim.csv,ReadVersion_Recog.csv,"Read Recog",Read4,,,,,,0,Instruct,-,5,"In this section, you will be presented with a series of word pairs. Please study each word pair! Your memory will be tested!",Initial_Instruct,Instruct1,,6218,,,-1,-1,,,,1
6447a13cbe4aec52e4db6b1a,gkqco74jlb,"Mediated Recog Prolific",1,2,2023-05-08T21:03:12+00:00,3.555685043335,7,versionD_stim.csv,ReadVersion_Recog.csv,"Read Recog",Read4,,,,,,0,Instruct,User,-,"You will now begin. Press Enter when you are ready to begin.",,Instruct16,,3300,,,-1,-1,,,,1
6447a13cbe4aec52e4db6b1a,gkqco74jlb,"Mediated Recog Prolific",1,3,2023-05-08T21:03:14+00:00,2.7064270973206,7,versionD_stim.csv,ReadVersion_Recog.csv,"Read Recog",Read4,OCTOBER,SPOOKY,BUFFER3,Buffer,5,3,Study,User,-,,Study/JOL,BUFFER,,2452,,,-1,-1,,,,1
6447a13cbe4aec52e4db6b1a,gkqco74jlb,"Mediated Recog Prolific",1,4,2023-05-08T21:03:17+00:00,2.309182882309,7,versionD_stim.csv,ReadVersion_Recog.csv,"Read Recog",Read4,SPRING,MARCH,BUFFER3,Buffer,4,2,Study,User,-,,Study/JOL,BUFFER,,2049,,,-1,-1,,,,1
6447a13cbe4aec52e4db6b1a,gkqco74jlb,"Mediated Recog Prolific",1,5,2023-05-08T21:03:21+00:00,3.8016691207886,7,versionD_stim.csv,ReadVersion_Recog.csv,"Read Recog",Read4,DAYS,WEAKS,BUFFER3,Buffer,1,4,Study,User,-,,Study/JOL,BUFFER,,3544,,,-1,-1,,,,1
6447a13cbe4aec52e4db6b1a,gkqco74jlb,"Mediated Recog Prolific",1,6,2023-05-08T21:03:23+00:00,2.762806892395,7,versionD_stim.csv,ReadVersion_Recog.csv,"Read Recog",Read4,MONTH,YEAR,BUFFER3,Buffer,2,6,Study,User,-,,Study/JOL,BUFFER,,2500,,,-1,-1,,,,1
6447a13cbe4aec52e4db6b1a,gkqco74jlb,"Mediated Recog Prolific",1,7,2023-05-08T21:03:25+00:00,1.9118399620056,7,versionD_stim.csv,ReadVersion_Recog.csv,"Read Recog",Read4,TOOL,SHED,BUFFER3,Buffer,3,5,Study,User,-,,Study/JOL,BUFFER,,1651,,,-1,-1,,,,1
6447a13cbe4aec52e4db6b1a,gkqco74jlb,"Mediated Recog Prolific",1,8,2023-05-08T21:03:27+00:00,1.7428910732269,7,versionD_stim.csv,ReadVersion_Recog.csv,"Read Recog",Read4,FEUD,FIGHT,Study2,F,31,29,Study,User,-,,Study/JOL,"Study Phase",,1487,,,-1,-1,,,,1
6447a13cbe4aec52e4db6b1a,gkqco74jlb,"Mediated Recog Prolific",1,9,2023-05-08T21:03:28+00:00,1.0999739170074,7,versionD_stim.csv,ReadVersion_Recog.csv,"Read Recog",Read4,LEAGUE,BASEBALL,Study2,F,29,36,Study,User,-,,Study/JOL,"Study Phase",,842,,,-1,-1,,,,1
6447a13cbe4aec52e4db6b1a,gkqco74jlb,"Mediated Recog Prolific",1,10,2023-05-08T21:03:30+00:00,2.0634291172028,7,versionD_stim.csv,ReadVersion_Recog.csv,"Read Recog",Read4,WASP,BUG,Study2,F,34,31,Study,User,-,,Study/JOL,"Study Phase",,1810,,,-1,-1,,,,1
6447a13cbe4aec52e4db6b1a,gkqco74jlb,"Mediated Recog Prolific",1,11,2023-05-08T21:03:32+00:00,2.215213060379,7,versionD_stim.csv,ReadVersion_Recog.csv,"Read Recog",Read4,CASH,LEG,Study2,U,50,19,Study,User,-,,Study/JOL,"Study Phase",,1960,,,-1,-1,,,,1
6447a13cbe4aec52e4db6b1a,gkqco74jlb,"Mediated Recog Prolific",1,12,2023-05-08T21:03:35+00:00,3.1169698238373,7,versionD_stim.csv,ReadVersion_Recog.csv,"Read Recog",Read4,CHILL,COLD,Study2,F,32,8,Study,User,-,,Study/JOL,"Study Phase",,2863,,,-1,-1,,,,1
6447a13cbe4aec52e4db6b1a,gkqco74jlb,"Mediated Recog Prolific",1,13,2023-05-08T21:03:37+00:00,1.4975531101227,7,versionD_stim.csv,ReadVersion_Recog.csv,"Read Recog",Read4,CHERRY,RED,Study2,F,25,28,Study,User,-,,Study/JOL,"Study Phase",,1239,,,-1,-1,,,,1
6447a13cbe4aec52e4db6b1a,gkqco74jlb,"Mediated Recog Prolific",1,14,2023-05-08T21:03:38+00:00,1.3603699207306,7,versionD_stim.csv,ReadVersion_Recog.csv,"Read Recog",Read4,EYES,SMELL,Study2,M,10,49,Study,User,-,,Study/JOL,"Study Phase",,1102,,,-1,-1,,,,1
6447a13cbe4aec52e4db6b1a,gkqco74jlb,"Mediated Recog Prolific",1,15,2023-05-08T21:03:41+00:00,2.9113070964813,7,versionD_stim.csv,ReadVersion_Recog.csv,"Read Recog",Read4,OVEN,BASKET,Study2,M,16,35,Study,User,-,,Study/JOL,"Study Phase",,2652,,,-1,-1,,,,1
6447a13cbe4aec52e4db6b1a,gkqco74jlb,"Mediated Recog Prolific",1,16,2023-05-08T21:03:42+00:00,1.1751420497894,7,versionD_stim.csv,ReadVersion_Recog.csv,"Read Recog",Read4,SUMMER,SNOW,Study2,M,6,37,Study,User,-,,Study/JOL,"Study Phase",,919,,,-1,-1,,,,1
6447a13cbe4aec52e4db6b1a,gkqco74jlb,"Mediated Recog Prolific",1,17,2023-05-08T21:03:44+00:00,1.5896229743958,7,versionD_stim.csv,ReadVersion_Recog.csv,"Read Recog",Read4,WINDOW,KNOB,Study2,M,19,21,Study,User,-,,Study/JOL,"Study Phase",,1311,,,-1,-1,,,,1
6447a13cbe4aec52e4db6b1a,gkqco74jlb,"Mediated Recog Prolific",1,18,2023-05-08T21:03:45+00:00,1.2786629199982,7,versionD_stim.csv,ReadVersion_Recog.csv,"Read Recog",Read4,SOAP,DRINK,Study2,M,12,40,Study,User,-,,Study/JOL,"Study Phase",,1021,,,-1,-1,,,,1
6447a13cbe4aec52e4db6b1a,gkqco74jlb,"Mediated Recog Prolific",1,19,2023-05-08T21:03:47+00:00,1.2771830558777,7,versionD_stim.csv,ReadVersion_Recog.csv,"Read Recog",Read4,BENCH,HORN,Study2,U,43,42,Study,User,-,,Study/JOL,"Study Phase",,1019,,,-1,-1,,,,1
6447a13cbe4aec52e4db6b1a,gkqco74jlb,"Mediated Recog Prolific",1,20,2023-05-08T21:03:51+00:00,4.0733959674835,7,versionD_stim.csv,ReadVersion_Recog.csv,"Read Recog",Read4,BRIDGE,WATER,Study2,F,35,50,Study,User,-,,Study/JOL,"Study Phase",,3810,,,-1,-1,,,,1
6447a13cbe4aec52e4db6b1a,gkqco74jlb,"Mediated Recog Prolific",1,21,2023-05-08T21:03:52+00:00,1.5938038825989,7,versionD_stim.csv,ReadVersion_Recog.csv,"Read Recog",Read4,HERD,COW,Study2,F,33,18,Study,User,-,,Study/JOL,"Study Phase",,1340,,,-1,-1,,,,1
6447a13cbe4aec52e4db6b1a,gkqco74jlb,"Mediated Recog Prolific",1,22,2023-05-08T21:03:55+00:00,2.4800050258636,7,versionD_stim.csv,ReadVersion_Recog.csv,"Read Recog",Read4,DEATH,BUSINESS,Study2,U,44,24,Study,User,-,,Study/JOL,"Study Phase",,2218,,,-1,-1,,,,1
6447a13cbe4aec52e4db6b1a,gkqco74jlb,"Mediated Recog Prolific",1,23,2023-05-08T21:03:56+00:00,1.4005949497223,7,versionD_stim.csv,ReadVersion_Recog.csv,"Read Recog",Read4,PANTS,COLLAR,Study2,M,8,44,Study,User,-,,Study/JOL,"Study Phase",,1144,,,-1,-1,,,,1
6447a13cbe4aec52e4db6b1a,gkqco74jlb,"Mediated Recog Prolific",1,24,2023-05-08T21:03:57+00:00,1.3190090656281,7,versionD_stim.csv,ReadVersion_Recog.csv,"Read Recog",Read4,HAPPY,CAR,Study2,U,37,23,Study,User,-,,Study/JOL,"Study Phase",,1043,,,-1,-1,,,,1
6447a13cbe4aec52e4db6b1a,gkqco74jlb,"Mediated Recog Prolific",1,25,2023-05-08T21:03:59+00:00,1.7112531661987,7,versionD_stim.csv,ReadVersion_Recog.csv,"Read Recog",Read4,ART,WOLF,Study2,U,38,12,Study,User,-,,Study/JOL,"Study Phase",,1457,,,-1,-1,,,,1
6447a13cbe4aec52e4db6b1a,gkqco74jlb,"Mediated Recog Prolific",1,26,2023-05-08T21:04:02+00:00,2.6751499176025,7,versionD_stim.csv,ReadVersion_Recog.csv,"Read Recog",Read4,PUSH,CLUTTER,Study2,U,41,13,Study,User,-,,Study/JOL,"Study Phase",,2418,,,-1,-1,,,,1
6447a13cbe4aec52e4db6b1a,gkqco74jlb,"Mediated Recog Prolific",1,27,2023-05-08T21:04:03+00:00,1.4824049472809,7,versionD_stim.csv,ReadVersion_Recog.csv,"Read Recog",Read4,TRAP,CAVE,Study2,M,15,48,Study,User,-,,Study/JOL,"Study Phase",,1222,,,-1,-1,,,,1
6447a13cbe4aec52e4db6b1a,gkqco74jlb,"Mediated Recog Prolific",1,28,2023-05-08T21:04:07+00:00,3.6086959838867,7,versionD_stim.csv,ReadVersion_Recog.csv,"Read Recog",Read4,RAKE,SEED,Study2,M,14,34,Study,User,-,,Study/JOL,"Study Phase",,3345,,,-1,-1,,,,1
6447a13cbe4aec52e4db6b1a,gkqco74jlb,"Mediated Recog Prolific",1,29,2023-05-08T21:04:09+00:00,1.9096100330353,7,versionD_stim.csv,ReadVersion_Recog.csv,"Read Recog",Read4,MIRROR,CHILDREN,Study2,U,49,51,Study,User,-,,Study/JOL,"Study Phase",,1654,,,-1,-1,,,,1
6447a13cbe4aec52e4db6b1a,gkqco74jlb,"Mediated Recog Prolific",1,30,2023-05-08T21:04:10+00:00,1.3063271045685,7,versionD_stim.csv,ReadVersion_Recog.csv,"Read Recog",Read4,CHISEL,HAMMER,Study2,F,23,33,Study,User,-,,Study/JOL,"Study Phase",,1047,,,-1,-1,,,,1
6447a13cbe4aec52e4db6b1a,gkqco74jlb,"Mediated Recog Prolific",1,31,2023-05-08T21:04:13+00:00,3.0097618103027,7,versionD_stim.csv,ReadVersion_Recog.csv,"Read Recog",Read4,LEASE,TOIL,Study2,U,46,7,Study,User,-,,Study/JOL,"Study Phase",,2755,,,-1,-1,,,,1
6447a13cbe4aec52e4db6b1a,gkqco74jlb,"Mediated Recog Prolific",1,32,2023-05-08T21:04:15+00:00,1.442862033844,7,versionD_stim.csv,ReadVersion_Recog.csv,"Read Recog",Read4,VALLEY,PEAK,Study2,M,18,9,Study,User,-,,Study/JOL,"Study Phase",,1186,,,-1,-1,,,,1
6447a13cbe4aec52e4db6b1a,gkqco74jlb,"Mediated Recog Prolific",1,33,2023-05-08T21:04:18+00:00,2.9628021717072,7,versionD_stim.csv,ReadVersion_Recog.csv,"Read Recog",Read4,DIETARY,SACK,Study2,U,42,32,Study,User,-,,Study/JOL,"Study Phase",,2708,,,-1,-1,,,,1
6447a13cbe4aec52e4db6b1a,gkqco74jlb,"Mediated Recog Prolific",1,34,2023-05-08T21:04:20+00:00,2.424379825592,7,versionD_stim.csv,ReadVersion_Recog.csv,"Read Recog",Read4,BOTH,OUNCE,Study2,U,47,26,Study,User,-,,Study/JOL,"Study Phase",,2167,,,-1,-1,,,,1
6447a13cbe4aec52e4db6b1a,gkqco74jlb,"Mediated Recog Prolific",1,35,2023-05-08T21:04:22+00:00,1.9955310821533,7,versionD_stim.csv,ReadVersion_Recog.csv,"Read Recog",Read4,NURSE,LAWYER,Study2,M,11,39,Study,User,-,,Study/JOL,"Study Phase",,1743,,,-1,-1,,,,1
6447a13cbe4aec52e4db6b1a,gkqco74jlb,"Mediated Recog Prolific",1,36,2023-05-08T21:04:24+00:00,1.9163200855255,7,versionD_stim.csv,ReadVersion_Recog.csv,"Read Recog",Read4,HORNET,STING,Study2,F,30,15,Study,User,-,,Study/JOL,"Study Phase",,1662,,,-1,-1,,,,1
6447a13cbe4aec52e4db6b1a,gkqco74jlb,"Mediated Recog Prolific",1,37,2023-05-08T21:04:25+00:00,1.3110728263855,7,versionD_stim.csv,ReadVersion_Recog.csv,"Read Recog",Read4,BLAZE,FIRE,Study2,F,26,38,Study,User,-,,Study/JOL,"Study Phase",,1056,,,-1,-1,,,,1
6447a13cbe4aec52e4db6b1a,gkqco74jlb,"Mediated Recog Prolific",1,38,2023-05-08T21:04:27+00:00,1.457955121994,7,versionD_stim.csv,ReadVersion_Recog.csv,"Read Recog",Read4,CHOP,CUT,Study2,F,22,17,Study,User,-,,Study/JOL,"Study Phase",,1198,,,-1,-1,,,,1
6447a13cbe4aec52e4db6b1a,gkqco74jlb,"Mediated Recog Prolific",1,39,2023-05-08T21:04:28+00:00,1.0899889469147,7,versionD_stim.csv,ReadVersion_Recog.csv,"Read Recog",Read4,CACTUS,PLANT,Study2,F,21,41,Study,User,-,,Study/JOL,"Study Phase",,833,,,-1,-1,,,,1
6447a13cbe4aec52e4db6b1a,gkqco74jlb,"Mediated Recog Prolific",1,40,2023-05-08T21:04:29+00:00,1.3421840667725,7,versionD_stim.csv,ReadVersion_Recog.csv,"Read Recog",Read4,REALITY,ISLAND,Study2,M,9,22,Study,User,-,,Study/JOL,"Study Phase",,1086,,,-1,-1,,,,1
6447a13cbe4aec52e4db6b1a,gkqco74jlb,"Mediated Recog Prolific",1,41,2023-05-08T21:04:31+00:00,2.3741369247437,7,versionD_stim.csv,ReadVersion_Recog.csv,"Read Recog",Read4,SICK,HIDE,Study2,U,45,10,Study,User,-,,Study/JOL,"Study Phase",,2116,,,-1,-1,,,,1
6447a13cbe4aec52e4db6b1a,gkqco74jlb,"Mediated Recog Prolific",1,42,2023-05-08T21:04:33+00:00,1.4099960327148,7,versionD_stim.csv,ReadVersion_Recog.csv,"Read Recog",Read4,ATTIRE,CLOTHES,Study2,F,24,14,Study,User,-,,Study/JOL,"Study Phase",,1154,,,-1,-1,,,,1
6447a13cbe4aec52e4db6b1a,gkqco74jlb,"Mediated Recog Prolific",1,43,2023-05-08T21:04:35+00:00,1.829941034317,7,versionD_stim.csv,ReadVersion_Recog.csv,"Read Recog",Read4,KING,VASE,Study2,U,36,11,Study,User,-,,Study/JOL,"Study Phase",,1574,,,-1,-1,,,,1
6447a13cbe4aec52e4db6b1a,gkqco74jlb,"Mediated Recog Prolific",1,44,2023-05-08T21:04:36+00:00,1.148421049118,7,versionD_stim.csv,ReadVersion_Recog.csv,"Read Recog",Read4,SCHOOL,STOP,Study2,M,7,16,Study,User,-,,Study/JOL,"Study Phase",,894,,,-1,-1,,,,1
6447a13cbe4aec52e4db6b1a,gkqco74jlb,"Mediated Recog Prolific",1,45,2023-05-08T21:04:38+00:00,2.2269299030304,7,versionD_stim.csv,ReadVersion_Recog.csv,"Read Recog",Read4,ARTERY,BRONZE,Study2,U,48,25,Study,User,-,,Study/JOL,"Study Phase",,1962,,,-1,-1,,,,1
6447a13cbe4aec52e4db6b1a,gkqco74jlb,"Mediated Recog Prolific",1,46,2023-05-08T21:04:40+00:00,1.8546249866486,7,versionD_stim.csv,ReadVersion_Recog.csv,"Read Recog",Read4,INCENSE,SMELL,Study2,F,28,45,Study,User,-,,Study/JOL,"Study Phase",,1596,,,-1,-1,,,,1
6447a13cbe4aec52e4db6b1a,gkqco74jlb,"Mediated Recog Prolific",1,47,2023-05-08T21:04:41+00:00,1.528774023056,7,versionD_stim.csv,ReadVersion_Recog.csv,"Read Recog",Read4,HEAVY,FEATHER,Study2,M,13,30,Study,User,-,,Study/JOL,"Study Phase",,1273,,,-1,-1,,,,1
6447a13cbe4aec52e4db6b1a,gkqco74jlb,"Mediated Recog Prolific",1,48,2023-05-08T21:04:43+00:00,1.6088509559631,7,versionD_stim.csv,ReadVersion_Recog.csv,"Read Recog",Read4,RAZOR,MUSCLE,Study2,M,20,43,Study,User,-,,Study/JOL,"Study Phase",,1354,,,-1,-1,,,,1
6447a13cbe4aec52e4db6b1a,gkqco74jlb,"Mediated Recog Prolific",1,49,2023-05-08T21:04:45+00:00,1.51136302948,7,versionD_stim.csv,ReadVersion_Recog.csv,"Read Recog",Read4,GRILL,THIGH,Study2,M,17,27,Study,User,-,,Study/JOL,"Study Phase",,1251,,,-1,-1,,,,1
6447a13cbe4aec52e4db6b1a,gkqco74jlb,"Mediated Recog Prolific",1,50,2023-05-08T21:04:52+00:00,7.8871440887451,7,versionD_stim.csv,ReadVersion_Recog.csv,"Read Recog",Read4,SUGAR,RIDDLE,Study2,U,40,46,Study,User,-,,Study/JOL,"Study Phase",,7628,,,-1,-1,,,,0.684
6447a13cbe4aec52e4db6b1a,gkqco74jlb,"Mediated Recog Prolific",1,51,2023-05-08T21:04:54+00:00,1.1357169151306,7,versionD_stim.csv,ReadVersion_Recog.csv,"Read Recog",Read4,STRONG,ACCIDENT,Study2,U,39,20,Study,User,-,,Study/JOL,"Study Phase",,870,,,-1,-1,,,,1
6447a13cbe4aec52e4db6b1a,gkqco74jlb,"Mediated Recog Prolific",1,52,2023-05-08T21:04:55+00:00,1.1631860733032,7,versionD_stim.csv,ReadVersion_Recog.csv,"Read Recog",Read4,DOCUMENT,PAPER,Study2,F,27,47,Study,User,-,,Study/JOL,"Study Phase",,904,,,-1,-1,,,,1
6447a13cbe4aec52e4db6b1a,gkqco74jlb,"Mediated Recog Prolific",1,53,2023-05-08T21:04:56+00:00,1.0726578235626,7,versionD_stim.csv,ReadVersion_Recog.csv,"Read Recog",Read4,CARROT,POTATO,BUFFER4,Buffer,51,55,Study,User,-,,Study/JOL,BUFFER2,,812,,,-1,-1,,,,1
6447a13cbe4aec52e4db6b1a,gkqco74jlb,"Mediated Recog Prolific",1,54,2023-05-08T21:04:57+00:00,1.1555411815643,7,versionD_stim.csv,ReadVersion_Recog.csv,"Read Recog",Read4,ICE,FROZEN,BUFFER4,Buffer,54,53,Study,User,-,,Study/JOL,BUFFER2,,891,,,-1,-1,,,,1
6447a13cbe4aec52e4db6b1a,gkqco74jlb,"Mediated Recog Prolific",1,55,2023-05-08T21:04:58+00:00,1.1931779384613,7,versionD_stim.csv,ReadVersion_Recog.csv,"Read Recog",Read4,NOODLE,STRING,BUFFER4,Buffer,52,54,Study,User,-,,Study/JOL,BUFFER2,,933,,,-1,-1,,,,1
6447a13cbe4aec52e4db6b1a,gkqco74jlb,"Mediated Recog Prolific",1,56,2023-05-08T21:04:59+00:00,1.1813230514526,7,versionD_stim.csv,ReadVersion_Recog.csv,"Read Recog",Read4,SHRIMP,FISH,BUFFER4,Buffer,53,52,Study,User,-,,Study/JOL,BUFFER2,,917,,,-1,-1,,,,1
6447a13cbe4aec52e4db6b1a,gkqco74jlb,"Mediated Recog Prolific",1,57,2023-05-08T21:05:01+00:00,1.3159928321838,7,versionD_stim.csv,ReadVersion_Recog.csv,"Read Recog",Read4,CAMP,ADVENTURE,BUFFER4,Buffer,55,56,Study,User,-,,Study/JOL,BUFFER2,,1056,,,-1,-1,,,,1
6447a13cbe4aec52e4db6b1a,gkqco74jlb,"Mediated Recog Prolific",1,58,2023-05-08T21:05:03+00:00,1.9809141159058,7,versionD_stim.csv,ReadVersion_Recog.csv,"Read Recog",Read4,,,,,,0,Instruct,User,-,"You have completed this section. Please press Enter.",Filler_Instruction,Instruct2,,1719,,,-1,-1,,,,1
6447a13cbe4aec52e4db6b1a,gkqco74jlb,"Mediated Recog Prolific",1,59,2023-05-08T21:07:03+00:00,120.48818993568,7,versionD_stim.csv,ReadVersion_Recog.csv,"Read Recog",Read4,,,,,,0,FreeRecall,120,120,"Please list the 50 US states in alphabetical order. The task will automatically advance to the next screen after two minutes.",,Filler1,,120001,"alabama alaska arkansas california florida illinois iowa indiana kentucky louis",0,9498,119682,0,0,,1
6447a13cbe4aec52e4db6b1a,gkqco74jlb,"Mediated Recog Prolific",1,60,2023-05-08T21:07:15+00:00,11.827211141586,7,versionD_stim.csv,ReadVersion_Recog.csv,"Read Recog",Read4,,,,,,0,Instruct,User,10,"Your memory will now be tested. You will be presented with a series of words that may or may not have been previously presented alongside another word. If the word on the screen was previously studied, please select YES. If the word was not studied, select NO. PLEASE DO NOT SKIP ITEMS! Click next when you are ready to begin.",,Instruc7982154d,,10853,,,-1,-1,,,,1
6447a13cbe4aec52e4db6b1a,gkqco74jlb,"Mediated Recog Prolific",1,61,2023-05-08T21:07:22+00:00,6.7928659915924,7,versionD_stim.csv,ReadVersion_Recog.csv,"Read Recog",Read4,,HEAD,RECOG,Control,78,116,Likert,User,1,"Was this item previously studied?",PRESENTED,Recog,1::2,6520,YES,28.571428571429,-1,-1,0,0,,1
6447a13cbe4aec52e4db6b1a,gkqco74jlb,"Mediated Recog Prolific",1,62,2023-05-08T21:07:26+00:00,3.9316937923431,7,versionD_stim.csv,ReadVersion_Recog.csv,"Read Recog",Read4,,SYRUP,RECOG,Control,66,81,Likert,User,1,"Was this item previously studied?",CONTROL,Recog,1::2,3673,NO,0,-1,-1,0,0,,1
6447a13cbe4aec52e4db6b1a,gkqco74jlb,"Mediated Recog Prolific",1,63,2023-05-08T21:07:29+00:00,3.2204701900482,7,versionD_stim.csv,ReadVersion_Recog.csv,"Read Recog",Read4,,BUG,RECOG,Presented,134,73,Likert,User,1,"Was this item previously studied?",CONTROL,Recog,1::2,2961,YES,0,-1,-1,0,0,,1
6447a13cbe4aec52e4db6b1a,gkqco74jlb,"Mediated Recog Prolific",1,64,2023-05-08T21:07:33+00:00,3.6980090141296,7,versionD_stim.csv,ReadVersion_Recog.csv,"Read Recog",Read4,,PLANT,RECOG,Presented,121,142,Likert,User,1,"Was this item previously studied?",PRESENTED,Recog,1::2,3439,YES,0,-1,-1,0,0,,1
6447a13cbe4aec52e4db6b1a,gkqco74jlb,"Mediated Recog Prolific",1,65,2023-05-08T21:07:37+00:00,4.586562871933,7,versionD_stim.csv,ReadVersion_Recog.csv,"Read Recog",Read4,,LEG,RECOG,Presented,150,99,Likert,User,1,"Was this item previously studied?",CONTROL,Recog,1::2,4329,YES,33.333333333333,-1,-1,0,0,,1
6447a13cbe4aec52e4db6b1a,gkqco74jlb,"Mediated Recog Prolific",1,66,2023-05-08T21:07:41+00:00,3.5215990543365,7,versionD_stim.csv,ReadVersion_Recog.csv,"Read Recog",Read4,,DARK,RECOG,Control,73,72,Likert,User,1,"Was this item previously studied?",CONTROL,Recog,1::2,3265,NO,0,-1,-1,0,0,,1
6447a13cbe4aec52e4db6b1a,gkqco74jlb,"Mediated Recog Prolific",1,67,2023-05-08T21:07:44+00:00,3.6196339130402,7,versionD_stim.csv,ReadVersion_Recog.csv,"Read Recog",Read4,,FLOWER,RECOG,Control,89,139,Likert,User,1,"Was this item previously studied?",PRESENTED,Recog,1::2,3361,NO,25,-1,-1,0,0,,1
6447a13cbe4aec52e4db6b1a,gkqco74jlb,"Mediated Recog Prolific",1,68,2023-05-08T21:07:48+00:00,3.6956760883331,7,versionD_stim.csv,ReadVersion_Recog.csv,"Read Recog",Read4,,SLEEP,RECOG,Control,84,126,Likert,User,1,"Was this item previously studied?",PRESENTED,Recog,1::2,3439,NO,0,-1,-1,0,0,,1
6447a13cbe4aec52e4db6b1a,gkqco74jlb,"Mediated Recog Prolific",1,69,2023-05-08T21:07:51+00:00,3.3871488571167,7,versionD_stim.csv,ReadVersion_Recog.csv,"Read Recog",Read4,,CARD,RECOG,Control,88,66,Likert,User,1,"Was this item previously studied?",CONTROL,Recog,1::2,3126,NO,0,-1,-1,0,0,,1
6447a13cbe4aec52e4db6b1a,gkqco74jlb,"Mediated Recog Prolific",1,70,2023-05-08T21:07:55+00:00,3.6243331432343,7,versionD_stim.csv,ReadVersion_Recog.csv,"Read Recog",Read4,,BASKET,RECOG,Presented,116,131,Likert,User,1,"Was this item previously studied?",PRESENTED,Recog,1::2,3362,YES,22.222222222222,-1,-1,0,0,,1
6447a13cbe4aec52e4db6b1a,gkqco74jlb,"Mediated Recog Prolific",1,71,2023-05-08T21:07:59+00:00,3.4914300441742,7,versionD_stim.csv,ReadVersion_Recog.csv,"Read Recog",Read4,,STEAK,RECOG,Control,93,109,Likert,User,1,"Was this item previously studied?",PRESENTED,Recog,1::2,3235,YES,25,-1,-1,0,0,,1
6447a13cbe4aec52e4db6b1a,gkqco74jlb,"Mediated Recog Prolific",1,72,2023-05-08T21:08:03+00:00,4.0607299804688,7,versionD_stim.csv,ReadVersion_Recog.csv,"Read Recog",Read4,,BUSINESS,RECOG,Presented,144,83,Likert,User,1,"Was this item previously studied?",CONTROL,Recog,1::2,3802,YES,36.363636363636,-1,-1,0,0,,1
6447a13cbe4aec52e4db6b1a,gkqco74jlb,"Mediated Recog Prolific",1,73,2023-05-08T21:08:07+00:00,3.9826040267944,7,versionD_stim.csv,ReadVersion_Recog.csv,"Read Recog",Read4,,TICK,RECOG,Control,102,90,Likert,User,1,"Was this item previously studied?",CONTROL,Recog,1::2,3715,NO,0,-1,-1,0,0,,1
6447a13cbe4aec52e4db6b1a,gkqco74jlb,"Mediated Recog Prolific",1,74,2023-05-08T21:08:10+00:00,3.510675907135,7,versionD_stim.csv,ReadVersion_Recog.csv,"Read Recog",Read4,,WHEEL,RECOG,Control,69,107,Likert,User,1,"Was this item previously studied?",PRESENTED,Recog,1::2,3245,YES,25,-1,-1,0,0,,1
6447a13cbe4aec52e4db6b1a,gkqco74jlb,"Mediated Recog Prolific",1,75,2023-05-08T21:08:14+00:00,3.6899430751801,7,versionD_stim.csv,ReadVersion_Recog.csv,"Read Recog",Read4,,SENTENCE,RECOG,Control,82,115,Likert,User,1,"Was this item previously studied?",PRESENTED,Recog,1::2,3429,NO,20,-1,-1,0,0,,1
6447a13cbe4aec52e4db6b1a,gkqco74jlb,"Mediated Recog Prolific",1,76,2023-05-08T21:08:17+00:00,3.3582248687744,7,versionD_stim.csv,ReadVersion_Recog.csv,"Read Recog",Read4,,PAPER,RECOG,Presented,127,127,Likert,User,1,"Was this item previously studied?",PRESENTED,Recog,1::2,3097,NO,0,-1,-1,0,0,,1
6447a13cbe4aec52e4db6b1a,gkqco74jlb,"Mediated Recog Prolific",1,77,2023-05-08T21:08:21+00:00,3.9058740139008,7,versionD_stim.csv,ReadVersion_Recog.csv,"Read Recog",Read4,,SEED,RECOG,Presented,114,71,Likert,User,1,"Was this item previously studied?",CONTROL,Recog,1::2,3642,NO,0,-1,-1,0,0,,1
6447a13cbe4aec52e4db6b1a,gkqco74jlb,"Mediated Recog Prolific",1,78,2023-05-08T21:08:26+00:00,5.0313141345978,7,versionD_stim.csv,ReadVersion_Recog.csv,"Read Recog",Read4,,BELT,RECOG,Control,101,74,Likert,User,1,"Was this item previously studied?",CONTROL,Recog,1::2,4769,YES,28.571428571429,-1,-1,0,0,,1
6447a13cbe4aec52e4db6b1a,gkqco74jlb,"Mediated Recog Prolific",1,79,2023-05-08T21:08:30+00:00,3.4545638561249,7,versionD_stim.csv,ReadVersion_Recog.csv,"Read Recog",Read4,,ELECTION,RECOG,Control,94,102,Likert,User,1,"Was this item previously studied?",PRESENTED,Recog,1::2,3190,NO,20,-1,-1,0,0,,1
6447a13cbe4aec52e4db6b1a,gkqco74jlb,"Mediated Recog Prolific",1,80,2023-05-08T21:08:33+00:00,3.5349011421204,7,versionD_stim.csv,ReadVersion_Recog.csv,"Read Recog",Read4,,DONKEY,RECOG,Control,85,143,Likert,User,1,"Was this item previously studied?",PRESENTED,Recog,1::2,3273,NO,25,-1,-1,0,0,,1
6447a13cbe4aec52e4db6b1a,gkqco74jlb,"Mediated Recog Prolific",1,81,2023-05-08T21:08:37+00:00,3.4591150283813,7,versionD_stim.csv,ReadVersion_Recog.csv,"Read Recog",Read4,,LAWYER,RECOG,Presented,111,125,Likert,User,1,"Was this item previously studied?",PRESENTED,Recog,1::2,3202,YES,44.444444444444,-1,-1,0,0,,1
6447a13cbe4aec52e4db6b1a,gkqco74jlb,"Mediated Recog Prolific",1,82,2023-05-08T21:08:40+00:00,3.7379047870636,7,versionD_stim.csv,ReadVersion_Recog.csv,"Read Recog",Read4,,CLOTH,RECOG,Control,92,58,Likert,User,1,"Was this item previously studied?",CONTROL,Recog,1::2,3479,NO,28.571428571429,-1,-1,0,0,,1
6447a13cbe4aec52e4db6b1a,gkqco74jlb,"Mediated Recog Prolific",1,83,2023-05-08T21:08:43+00:00,3.1360909938812,7,versionD_stim.csv,ReadVersion_Recog.csv,"Read Recog",Read4,,PIE,RECOG,Control,64,136,Likert,User,1,"Was this item previously studied?",PRESENTED,Recog,1::2,2880,NO,0,-1,-1,0,0,,1
6447a13cbe4aec52e4db6b1a,gkqco74jlb,"Mediated Recog Prolific",1,84,2023-05-08T21:08:54+00:00,11.034680128098,7,versionD_stim.csv,ReadVersion_Recog.csv,"Read Recog",Read4,,MONEY,RECOG,Control,77,104,Likert,User,1,"Was this item previously studied?",PRESENTED,Recog,1::2,10772,YES,25,-1,-1,0,0,,1
6447a13cbe4aec52e4db6b1a,gkqco74jlb,"Mediated Recog Prolific",1,85,2023-05-08T21:08:59+00:00,4.4347400665283,7,versionD_stim.csv,ReadVersion_Recog.csv,"Read Recog",Read4,,WATER,RECOG,Presented,135,98,Likert,User,1,"Was this item previously studied?",CONTROL,Recog,1::2,4171,NO,0,-1,-1,0,0,,1
6447a13cbe4aec52e4db6b1a,gkqco74jlb,"Mediated Recog Prolific",1,86,2023-05-08T21:09:03+00:00,4.3911628723145,7,versionD_stim.csv,ReadVersion_Recog.csv,"Read Recog",Read4,,DONKEY,RECOG,Control,79,65,Likert,User,1,"Was this item previously studied?",CONTROL,Recog,1::2,4132,NO,25,-1,-1,0,0,,1
6447a13cbe4aec52e4db6b1a,gkqco74jlb,"Mediated Recog Prolific",1,87,2023-05-08T21:09:07+00:00,3.6654391288757,7,versionD_stim.csv,ReadVersion_Recog.csv,"Read Recog",Read4,,RED,RECOG,Presented,125,144,Likert,User,1,"Was this item previously studied?",PRESENTED,Recog,1::2,3408,YES,33.333333333333,-1,-1,0,0,,1
6447a13cbe4aec52e4db6b1a,gkqco74jlb,"Mediated Recog Prolific",1,88,2023-05-08T21:09:11+00:00,3.5974938869476,7,versionD_stim.csv,ReadVersion_Recog.csv,"Read Recog",Read4,,SNOW,RECOG,Presented,106,129,Likert,User,1,"Was this item previously studied?",PRESENTED,Recog,1::2,3327,YES,28.571428571429,-1,-1,0,0,,1
6447a13cbe4aec52e4db6b1a,gkqco74jlb,"Mediated Recog Prolific",1,89,2023-05-08T21:09:14+00:00,3.7127780914307,7,versionD_stim.csv,ReadVersion_Recog.csv,"Read Recog",Read4,,HORN,RECOG,Presented,143,88,Likert,User,1,"Was this item previously studied?",CONTROL,Recog,1::2,3452,YES,0,-1,-1,0,0,,1
6447a13cbe4aec52e4db6b1a,gkqco74jlb,"Mediated Recog Prolific",1,90,2023-05-08T21:09:19+00:00,4.5722670555115,7,versionD_stim.csv,ReadVersion_Recog.csv,"Read Recog",Read4,,COLD,RECOG,Presented,132,145,Likert,User,1,"Was this item previously studied?",PRESENTED,Recog,1::2,4304,NO,33.333333333333,-1,-1,0,0,,1
6447a13cbe4aec52e4db6b1a,gkqco74jlb,"Mediated Recog Prolific",1,91,2023-05-08T21:09:23+00:00,3.9027979373932,7,versionD_stim.csv,ReadVersion_Recog.csv,"Read Recog",Read4,,TRASH,RECOG,Control,76,80,Likert,User,1,"Was this item previously studied?",CONTROL,Recog,1::2,3642,NO,0,-1,-1,0,0,,1
6447a13cbe4aec52e4db6b1a,gkqco74jlb,"Mediated Recog Prolific",1,92,2023-05-08T21:09:26+00:00,3.3707649707794,7,versionD_stim.csv,ReadVersion_Recog.csv,"Read Recog",Read4,,DRINK,RECOG,Control,87,62,Likert,User,1,"Was this item previously studied?",CONTROL,Recog,1::2,3109,NO,28.571428571429,-1,-1,0,0,,1
6447a13cbe4aec52e4db6b1a,gkqco74jlb,"Mediated Recog Prolific",1,93,2023-05-08T21:09:29+00:00,3.4376170635223,7,versionD_stim.csv,ReadVersion_Recog.csv,"Read Recog",Read4,,BOUNCE,RECOG,Control,67,130,Likert,User,1,"Was this item previously studied?",PRESENTED,Recog,1::2,3175,NO,25,-1,-1,0,0,,1
6447a13cbe4aec52e4db6b1a,gkqco74jlb,"Mediated Recog Prolific",1,94,2023-05-08T21:09:33+00:00,3.3642008304596,7,versionD_stim.csv,ReadVersion_Recog.csv,"Read Recog",Read4,,FIRE,RECOG,Presented,126,133,Likert,User,1,"Was this item previously studied?",PRESENTED,Recog,1::2,3101,NO,0,-1,-1,0,0,,1
6447a13cbe4aec52e4db6b1a,gkqco74jlb,"Mediated Recog Prolific",1,95,2023-05-08T21:09:37+00:00,3.7228300571442,7,versionD_stim.csv,ReadVersion_Recog.csv,"Read Recog",Read4,,ACCIDENT,RECOG,Presented,139,94,Likert,User,1,"Was this item previously studied?",CONTROL,Recog,1::2,3462,NO,20,-1,-1,0,0,,1
6447a13cbe4aec52e4db6b1a,gkqco74jlb,"Mediated Recog Prolific",1,96,2023-05-08T21:09:40+00:00,3.5560591220856,7,versionD_stim.csv,ReadVersion_Recog.csv,"Read Recog",Read4,,CAR,RECOG,Presented,137,100,Likert,User,1,"Was this item previously studied?",CONTROL,Recog,1::2,3295,NO,0,-1,-1,0,0,,1
6447a13cbe4aec52e4db6b1a,gkqco74jlb,"Mediated Recog Prolific",1,97,2023-05-08T21:09:46+00:00,5.9029729366302,7,versionD_stim.csv,ReadVersion_Recog.csv,"Read Recog",Read4,,MAROON,RECOG,Control,91,114,Likert,User,1,"Was this item previously studied?",PRESENTED,Recog,1::2,5643,NO,25,-1,-1,0,0,,1
6447a13cbe4aec52e4db6b1a,gkqco74jlb,"Mediated Recog Prolific",1,98,2023-05-08T21:09:51+00:00,4.811537027359,7,versionD_stim.csv,ReadVersion_Recog.csv,"Read Recog",Read4,,BRONZE,RECOG,Presented,148,78,Likert,User,1,"Was this item previously studied?",CONTROL,Recog,1::2,4552,NO,25,-1,-1,0,0,,1
6447a13cbe4aec52e4db6b1a,gkqco74jlb,"Mediated Recog Prolific",1,99,2023-05-08T21:09:55+00:00,3.8239569664001,7,versionD_stim.csv,ReadVersion_Recog.csv,"Read Recog",Read4,,KEYS,RECOG,Control,96,59,Likert,User,1,"Was this item previously studied?",CONTROL,Recog,1::2,3000,NO,0,-1,-1,0,0,,1
6447a13cbe4aec52e4db6b1a,gkqco74jlb,"Mediated Recog Prolific",1,100,2023-05-08T21:09:58+00:00,3.4243268966675,7,versionD_stim.csv,ReadVersion_Recog.csv,"Read Recog",Read4,,KNOB,RECOG,Presented,119,134,Likert,User,1,"Was this item previously studied?",PRESENTED,Recog,1::2,3156,NO,66.666666666667,-1,-1,0,0,,1
6447a13cbe4aec52e4db6b1a,gkqco74jlb,"Mediated Recog Prolific",1,101,2023-05-08T21:10:02+00:00,3.5995361804962,7,versionD_stim.csv,ReadVersion_Recog.csv,"Read Recog",Read4,,BOTTLE,RECOG,Control,71,128,Likert,User,1,"Was this item previously studied?",PRESENTED,Recog,1::2,3317,NO,25,-1,-1,0,0,,1
6447a13cbe4aec52e4db6b1a,gkqco74jlb,"Mediated Recog Prolific",1,102,2023-05-08T21:10:05+00:00,3.4868569374084,7,versionD_stim.csv,ReadVersion_Recog.csv,"Read Recog",Read4,,TOIL,RECOG,Presented,146,122,Likert,User,1,"Was this item previously studied?",PRESENTED,Recog,1::2,3103,NO,33.333333333333,-1,-1,0,0,,1
6447a13cbe4aec52e4db6b1a,gkqco74jlb,"Mediated Recog Prolific",1,103,2023-05-08T21:10:09+00:00,3.3874719142914,7,versionD_stim.csv,ReadVersion_Recog.csv,"Read Recog",Read4,,CLEAN,RECOG,Control,83,79,Likert,User,1,"Was this item previously studied?",CONTROL,Recog,1::2,3127,NO,28.571428571429,-1,-1,0,0,,1
6447a13cbe4aec52e4db6b1a,gkqco74jlb,"Mediated Recog Prolific",1,104,2023-05-08T21:10:12+00:00,3.7904269695282,7,versionD_stim.csv,ReadVersion_Recog.csv,"Read Recog",Read4,,VASE,RECOG,Presented,136,108,Likert,User,1,"Was this item previously studied?",PRESENTED,Recog,1::2,3523,NO,0,-1,-1,0,0,,1
6447a13cbe4aec52e4db6b1a,gkqco74jlb,"Mediated Recog Prolific",1,105,2023-05-08T21:10:16+00:00,4.0826890468597,7,versionD_stim.csv,ReadVersion_Recog.csv,"Read Recog",Read4,,STRIPES,RECOG,Control,61,135,Likert,User,1,"Was this item previously studied?",PRESENTED,Recog,1::2,3822,NO,0,-1,-1,0,0,,1
6447a13cbe4aec52e4db6b1a,gkqco74jlb,"Mediated Recog Prolific",1,106,2023-05-08T21:10:21+00:00,4.5297269821167,7,versionD_stim.csv,ReadVersion_Recog.csv,"Read Recog",Read4,,BIRD,RECOG,Control,81,69,Likert,User,1,"Was this item previously studied?",CONTROL,Recog,1::2,4264,NO,0,-1,-1,0,0,,1
6447a13cbe4aec52e4db6b1a,gkqco74jlb,"Mediated Recog Prolific",1,107,2023-05-08T21:10:26+00:00,4.9043610095978,7,versionD_stim.csv,ReadVersion_Recog.csv,"Read Recog",Read4,,BOX,RECOG,Control,62,77,Likert,User,1,"Was this item previously studied?",CONTROL,Recog,1::2,4645,NO,40,-1,-1,0,0,,1
6447a13cbe4aec52e4db6b1a,gkqco74jlb,"Mediated Recog Prolific",1,108,2023-05-08T21:10:31+00:00,4.7040560245514,7,versionD_stim.csv,ReadVersion_Recog.csv,"Read Recog",Read4,,CUT,RECOG,Presented,122,93,Likert,User,1,"Was this item previously studied?",CONTROL,Recog,1::2,4442,NO,0,-1,-1,0,0,,1
6447a13cbe4aec52e4db6b1a,gkqco74jlb,"Mediated Recog Prolific",1,109,2023-05-08T21:10:34+00:00,3.1260480880737,7,versionD_stim.csv,ReadVersion_Recog.csv,"Read Recog",Read4,,OUNCE,RECOG,Presented,147,141,Likert,User,1,"Was this item previously studied?",PRESENTED,Recog,1::2,2861,NO,28.571428571429,-1,-1,0,0,,1
6447a13cbe4aec52e4db6b1a,gkqco74jlb,"Mediated Recog Prolific",1,110,2023-05-08T21:10:37+00:00,3.4703068733215,7,versionD_stim.csv,ReadVersion_Recog.csv,"Read Recog",Read4,,PHONE,RECOG,Control,97,106,Likert,User,1,"Was this item previously studied?",PRESENTED,Recog,1::2,2743,NO,28.571428571429,-1,-1,0,0,,1
6447a13cbe4aec52e4db6b1a,gkqco74jlb,"Mediated Recog Prolific",1,111,2023-05-08T21:10:41+00:00,3.5710599422455,7,versionD_stim.csv,ReadVersion_Recog.csv,"Read Recog",Read4,,BASEBALL,RECOG,Presented,129,63,Likert,User,1,"Was this item previously studied?",CONTROL,Recog,1::2,3306,NO,0,-1,-1,0,0,,1
6447a13cbe4aec52e4db6b1a,gkqco74jlb,"Mediated Recog Prolific",1,112,2023-05-08T21:10:45+00:00,4.4918642044067,7,versionD_stim.csv,ReadVersion_Recog.csv,"Read Recog",Read4,,CLOTHES,RECOG,Presented,124,120,Likert,User,1,"Was this item previously studied?",PRESENTED,Recog,1::2,4234,YES,40,-1,-1,0,0,,1
6447a13cbe4aec52e4db6b1a,gkqco74jlb,"Mediated Recog Prolific",1,113,2023-05-08T21:10:50+00:00,4.5519869327545,7,versionD_stim.csv,ReadVersion_Recog.csv,"Read Recog",Read4,,STING,RECOG,Presented,130,68,Likert,User,1,"Was this item previously studied?",CONTROL,Recog,1::2,4294,YES,25,-1,-1,0,0,,1
6447a13cbe4aec52e4db6b1a,gkqco74jlb,"Mediated Recog Prolific",1,114,2023-05-08T21:10:53+00:00,3.3268809318542,7,versionD_stim.csv,ReadVersion_Recog.csv,"Read Recog",Read4,,CLUTTER,RECOG,Presented,141,132,Likert,User,1,"Was this item previously studied?",PRESENTED,Recog,1::2,3063,NO,0,-1,-1,0,0,,1
6447a13cbe4aec52e4db6b1a,gkqco74jlb,"Mediated Recog Prolific",1,115,2023-05-08T21:10:57+00:00,3.5068860054016,7,versionD_stim.csv,ReadVersion_Recog.csv,"Read Recog",Read4,,PLANT,RECOG,Control,80,111,Likert,User,1,"Was this item previously studied?",PRESENTED,Recog,1::2,3249,NO,28.571428571429,-1,-1,0,0,,1
6447a13cbe4aec52e4db6b1a,gkqco74jlb,"Mediated Recog Prolific",1,116,2023-05-08T21:11:00+00:00,3.340038061142,7,versionD_stim.csv,ReadVersion_Recog.csv,"Read Recog",Read4,,SILK,RECOG,Control,65,118,Likert,User,1,"Was this item previously studied?",PRESENTED,Recog,1::2,3078,NO,0,-1,-1,0,0,,1
6447a13cbe4aec52e4db6b1a,gkqco74jlb,"Mediated Recog Prolific",1,117,2023-05-08T21:11:05+00:00,4.5517630577087,7,versionD_stim.csv,ReadVersion_Recog.csv,"Read Recog",Read4,,STOP,RECOG,Presented,107,103,Likert,User,1,"Was this item previously studied?",PRESENTED,Recog,1::2,4293,NO,33.333333333333,-1,-1,0,0,,1
6447a13cbe4aec52e4db6b1a,gkqco74jlb,"Mediated Recog Prolific",1,118,2023-05-08T21:11:09+00:00,4.2975449562073,7,versionD_stim.csv,ReadVersion_Recog.csv,"Read Recog",Read4,,CAVE,RECOG,Presented,115,67,Likert,User,1,"Was this item previously studied?",CONTROL,Recog,1::2,4036,NO,0,-1,-1,0,0,,1
6447a13cbe4aec52e4db6b1a,gkqco74jlb,"Mediated Recog Prolific",1,119,2023-05-08T21:11:14+00:00,5.4407329559326,7,versionD_stim.csv,ReadVersion_Recog.csv,"Read Recog",Read4,,SMELL,RECOG,Presented,110,112,Likert,User,1,"Was this item previously studied?",PRESENTED,Recog,1::2,5169,NO,0,-1,-1,0,0,,1
6447a13cbe4aec52e4db6b1a,gkqco74jlb,"Mediated Recog Prolific",1,120,2023-05-08T21:11:18+00:00,3.98890209198,7,versionD_stim.csv,ReadVersion_Recog.csv,"Read Recog",Read4,,RIDDLE,RECOG,Presented,140,82,Likert,User,1,"Was this item previously studied?",CONTROL,Recog,1::2,3725,NO,0,-1,-1,0,0,,1
6447a13cbe4aec52e4db6b1a,gkqco74jlb,"Mediated Recog Prolific",1,121,2023-05-08T21:11:22+00:00,3.4948358535767,7,versionD_stim.csv,ReadVersion_Recog.csv,"Read Recog",Read4,,HAIR,RECOG,Control,74,123,Likert,User,1,"Was this item previously studied?",PRESENTED,Recog,1::2,3232,NO,0,-1,-1,0,0,,1
6447a13cbe4aec52e4db6b1a,gkqco74jlb,"Mediated Recog Prolific",1,122,2023-05-08T21:11:27+00:00,4.9202239513397,7,versionD_stim.csv,ReadVersion_Recog.csv,"Read Recog",Read4,,HIDE,RECOG,Presented,145,61,Likert,User,1,"Was this item previously studied?",CONTROL,Recog,1::2,4654,NO,0,-1,-1,0,0,,1
6447a13cbe4aec52e4db6b1a,gkqco74jlb,"Mediated Recog Prolific",1,123,2023-05-08T21:11:30+00:00,3.3565981388092,7,versionD_stim.csv,ReadVersion_Recog.csv,"Read Recog",Read4,,BANG,RECOG,Control,105,89,Likert,User,1,"Was this item previously studied?",CONTROL,Recog,1::2,3089,NO,33.333333333333,-1,-1,0,0,,1
6447a13cbe4aec52e4db6b1a,gkqco74jlb,"Mediated Recog Prolific",1,124,2023-05-08T21:11:34+00:00,3.7729110717773,7,versionD_stim.csv,ReadVersion_Recog.csv,"Read Recog",Read4,,MORNING,RECOG,Control,103,64,Likert,User,1,"Was this item previously studied?",CONTROL,Recog,1::2,3501,YES,0,-1,-1,0,0,,1
6447a13cbe4aec52e4db6b1a,gkqco74jlb,"Mediated Recog Prolific",1,125,2023-05-08T21:11:53+00:00,19.266450881958,7,versionD_stim.csv,ReadVersion_Recog.csv,"Read Recog",Read4,,ROD,RECOG,Control,100,140,Likert,User,1,"Was this item previously studied?",PRESENTED,Recog,1::2,19002,NO,40,-1,-1,0,0,,1
6447a13cbe4aec52e4db6b1a,gkqco74jlb,"Mediated Recog Prolific",1,126,2023-05-08T21:12:00+00:00,6.8430960178375,7,versionD_stim.csv,ReadVersion_Recog.csv,"Read Recog",Read4,,FIGHT,RECOG,Presented,131,60,Likert,User,1,"Was this item previously studied?",CONTROL,Recog,1::2,6577,NO,0,-1,-1,0,0,,1
6447a13cbe4aec52e4db6b1a,gkqco74jlb,"Mediated Recog Prolific",1,127,2023-05-08T21:12:04+00:00,3.9259519577026,7,versionD_stim.csv,ReadVersion_Recog.csv,"Read Recog",Read4,,SACK,RECOG,Presented,142,91,Likert,User,1,"Was this item previously studied?",CONTROL,Recog,1::2,3655,NO,0,-1,-1,0,0,,1
6447a13cbe4aec52e4db6b1a,gkqco74jlb,"Mediated Recog Prolific",1,128,2023-05-08T21:12:10+00:00,6.0474741458893,7,versionD_stim.csv,ReadVersion_Recog.csv,"Read Recog",Read4,,HAND,RECOG,Control,104,137,Likert,User,1,"Was this item previously studied?",PRESENTED,Recog,1::2,5784,NO,33.333333333333,-1,-1,0,0,,1
6447a13cbe4aec52e4db6b1a,gkqco74jlb,"Mediated Recog Prolific",1,129,2023-05-08T21:12:13+00:00,3.2819788455963,7,versionD_stim.csv,ReadVersion_Recog.csv,"Read Recog",Read4,,LOVE,RECOG,Control,86,84,Likert,User,1,"Was this item previously studied?",CONTROL,Recog,1::2,3016,NO,33.333333333333,-1,-1,0,0,,1
6447a13cbe4aec52e4db6b1a,gkqco74jlb,"Mediated Recog Prolific",1,130,2023-05-08T21:12:16+00:00,3.1835091114044,7,versionD_stim.csv,ReadVersion_Recog.csv,"Read Recog",Read4,,WOLF,RECOG,Presented,138,113,Likert,User,1,"Was this item previously studied?",PRESENTED,Recog,1::2,2925,NO,33.333333333333,-1,-1,0,0,,1
6447a13cbe4aec52e4db6b1a,gkqco74jlb,"Mediated Recog Prolific",1,131,2023-05-08T21:12:20+00:00,3.4331948757172,7,versionD_stim.csv,ReadVersion_Recog.csv,"Read Recog",Read4,,FICTION,RECOG,Control,99,85,Likert,User,1,"Was this item previously studied?",CONTROL,Recog,1::2,3160,NO,22.222222222222,-1,-1,0,0,,1
6447a13cbe4aec52e4db6b1a,gkqco74jlb,"Mediated Recog Prolific",1,132,2023-05-08T21:12:24+00:00,3.8283340930939,7,versionD_stim.csv,ReadVersion_Recog.csv,"Read Recog",Read4,,ISLAND,RECOG,Presented,109,75,Likert,User,1,"Was this item previously studied?",CONTROL,Recog,1::2,3564,NO,25,-1,-1,0,0,,1
6447a13cbe4aec52e4db6b1a,gkqco74jlb,"Mediated Recog Prolific",1,133,2023-05-08T21:12:29+00:00,5.1262969970703,7,versionD_stim.csv,ReadVersion_Recog.csv,"Read Recog",Read4,,MUSCLE,RECOG,Presented,120,110,Likert,User,1,"Was this item previously studied?",PRESENTED,Recog,1::2,4855,NO,0,-1,-1,0,0,,1
6447a13cbe4aec52e4db6b1a,gkqco74jlb,"Mediated Recog Prolific",1,134,2023-05-08T21:12:33+00:00,4.3687119483948,7,versionD_stim.csv,ReadVersion_Recog.csv,"Read Recog",Read4,,HAMMER,RECOG,Presented,123,97,Likert,User,1,"Was this item previously studied?",CONTROL,Recog,1::2,3882,NO,0,-1,-1,0,0,,1
6447a13cbe4aec52e4db6b1a,gkqco74jlb,"Mediated Recog Prolific",1,135,2023-05-08T21:12:37+00:00,3.9236829280853,7,versionD_stim.csv,ReadVersion_Recog.csv,"Read Recog",Read4,,DRINK,RECOG,Presented,112,146,Likert,User,1,"Was this item previously studied?",PRESENTED,Recog,1::2,3663,NO,28.571428571429,-1,-1,0,0,,1
6447a13cbe4aec52e4db6b1a,gkqco74jlb,"Mediated Recog Prolific",1,136,2023-05-08T21:12:41+00:00,4.0007710456848,7,versionD_stim.csv,ReadVersion_Recog.csv,"Read Recog",Read4,,FINGER,RECOG,Control,72,95,Likert,User,1,"Was this item previously studied?",CONTROL,Recog,1::2,3741,NO,25,-1,-1,0,0,,1
6447a13cbe4aec52e4db6b1a,gkqco74jlb,"Mediated Recog Prolific",1,137,2023-05-08T21:12:47+00:00,6.1084439754486,7,versionD_stim.csv,ReadVersion_Recog.csv,"Read Recog",Read4,,FISH,RECOG,Control,90,70,Likert,User,1,"Was this item previously studied?",CONTROL,Recog,1::2,5846,NO,0,-1,-1,0,0,,1
6447a13cbe4aec52e4db6b1a,gkqco74jlb,"Mediated Recog Prolific",1,138,2023-05-08T21:12:56+00:00,8.3936519622803,7,versionD_stim.csv,ReadVersion_Recog.csv,"Read Recog",Read4,,CHARM,RECOG,Control,95,121,Likert,User,1,"Was this item previously studied?",PRESENTED,Recog,1::2,8129,NO,0,-1,-1,0,0,,1
6447a13cbe4aec52e4db6b1a,gkqco74jlb,"Mediated Recog Prolific",1,139,2023-05-08T21:13:02+00:00,6.7643320560455,7,versionD_stim.csv,ReadVersion_Recog.csv,"Read Recog",Read4,,COLLAR,RECOG,Presented,108,124,Likert,User,1,"Was this item previously studied?",PRESENTED,Recog,1::2,6500,NO,25,-1,-1,0,0,,1
6447a13cbe4aec52e4db6b1a,gkqco74jlb,"Mediated Recog Prolific",1,140,2023-05-08T21:13:06+00:00,3.7064189910889,7,versionD_stim.csv,ReadVersion_Recog.csv,"Read Recog",Read4,,CARPET,RECOG,Control,70,87,Likert,User,1,"Was this item previously studied?",CONTROL,Recog,1::2,3444,NO,0,-1,-1,0,0,,1
6447a13cbe4aec52e4db6b1a,gkqco74jlb,"Mediated Recog Prolific",1,141,2023-05-08T21:13:10+00:00,3.6330330371857,7,versionD_stim.csv,ReadVersion_Recog.csv,"Read Recog",Read4,,DANCE,RECOG,Control,68,138,Likert,User,1,"Was this item previously studied?",PRESENTED,Recog,1::2,3362,YES,25,-1,-1,0,0,,1
6447a13cbe4aec52e4db6b1a,gkqco74jlb,"Mediated Recog Prolific",1,142,2023-05-08T21:13:13+00:00,3.3605971336365,7,versionD_stim.csv,ReadVersion_Recog.csv,"Read Recog",Read4,,PEAK,RECOG,Presented,118,117,Likert,User,1,"Was this item previously studied?",PRESENTED,Recog,1::2,3101,NO,0,-1,-1,0,0,,1
6447a13cbe4aec52e4db6b1a,gkqco74jlb,"Mediated Recog Prolific",1,143,2023-05-08T21:13:16+00:00,3.3582808971405,7,versionD_stim.csv,ReadVersion_Recog.csv,"Read Recog",Read4,,COW,RECOG,Presented,133,92,Likert,User,1,"Was this item previously studied?",CONTROL,Recog,1::2,3088,YES,0,-1,-1,0,0,,1
6447a13cbe4aec52e4db6b1a,gkqco74jlb,"Mediated Recog Prolific",1,144,2023-05-08T21:13:35+00:00,18.215419054031,7,versionD_stim.csv,ReadVersion_Recog.csv,"Read Recog",Read4,,SHAKE,RECOG,Control,98,105,Likert,User,1,"Was this item previously studied?",PRESENTED,Recog,1::2,17952,NO,0,-1,-1,0,0,,1
6447a13cbe4aec52e4db6b1a,gkqco74jlb,"Mediated Recog Prolific",1,145,2023-05-08T21:13:40+00:00,5.889436006546,7,versionD_stim.csv,ReadVersion_Recog.csv,"Read Recog",Read4,,QUIET,RECOG,Control,63,57,Likert,User,1,"Was this item previously studied?",CONTROL,Recog,1::2,5628,NO,0,-1,-1,0,0,,1
6447a13cbe4aec52e4db6b1a,gkqco74jlb,"Mediated Recog Prolific",1,146,2023-05-08T21:13:44+00:00,3.1055178642273,7,versionD_stim.csv,ReadVersion_Recog.csv,"Read Recog",Read4,,SMELL,RECOG,Presented,128,101,Likert,User,1,"Was this item previously studied?",CONTROL,Recog,1::2,2845,NO,0,-1,-1,0,0,,1
6447a13cbe4aec52e4db6b1a,gkqco74jlb,"Mediated Recog Prolific",1,147,2023-05-08T21:13:48+00:00,4.705069065094,7,versionD_stim.csv,ReadVersion_Recog.csv,"Read Recog",Read4,,THIGH,RECOG,Presented,117,96,Likert,User,1,"Was this item previously studied?",CONTROL,Recog,1::2,4442,NO,0,-1,-1,0,0,,1
6447a13cbe4aec52e4db6b1a,gkqco74jlb,"Mediated Recog Prolific",1,148,2023-05-08T21:14:03+00:00,14.992300033569,7,versionD_stim.csv,ReadVersion_Recog.csv,"Read Recog",Read4,,FEATHER,RECOG,Presented,113,119,Likert,User,1,"Was this item previously studied?",PRESENTED,Recog,1::2,14724,NO,0,-1,-1,0,0,,1
6447a13cbe4aec52e4db6b1a,gkqco74jlb,"Mediated Recog Prolific",1,149,2023-05-08T21:14:10+00:00,6.9228780269623,7,versionD_stim.csv,ReadVersion_Recog.csv,"Read Recog",Read4,,CHILDREN,RECOG,Presented,149,76,Likert,User,1,"Was this item previously studied?",CONTROL,Recog,1::2,5160,NO,20,-1,-1,0,0,,1
6447a13cbe4aec52e4db6b1a,gkqco74jlb,"Mediated Recog Prolific",1,150,2023-05-08T21:14:29+00:00,18.358325004578,7,versionD_stim.csv,ReadVersion_Recog.csv,"Read Recog",Read4,,COTTON,RECOG,Control,75,86,Likert,User,1,"Was this item previously studied?",CONTROL,Recog,1::2,18088,NO,25,-1,-1,0,0,,1
6447a13cbe4aec52e4db6b1a,gkqco74jlb,"Mediated Recog Prolific",1,151,2023-05-08T21:14:31+00:00,2.569944858551,7,versionD_stim.csv,ReadVersion_Recog.csv,"Read Recog",Read4,,,,,,0,Instruct,User,-,"You have completed this section. Please press Enter.",,Instruct7,,2304,,,-1,-1,,,,1
6447a13cbe4aec52e4db6b1a,gkqco74jlb,"Mediated Recog Prolific",1,152,2023-05-08T21:14:34+00:00,2.7787129878998,7,versionD_stim.csv,ReadVersion_Recog.csv,"Read Recog",Read4,,,,,,0,Instruct,User,-,"The following screen will ask you a few questions abour your experience today. You must complete these questions to receive credit.",,Instruct8,,2512,,,-1,-1,,,,1
