Username,ID,ExperimentName,Session,Trial,Date,TimeDif,"Condition Number","Stimuli File","Order File","Condition Description","Condition Notes",Stimuli*Cue,Stimuli*Answer,Stimuli*Shuffle,"Stimuli*Stimuli Notes",Stimuli*Value,Procedure*Item,"Procedure*Trial Type","Procedure*Max Time","Procedure*Min Time",Procedure*Text,"Procedure*Procedure Notes",Procedure*Shuffle,Procedure*,Response*RT,Response*Response,Response*Accuracy,Response*RTfirst,Response*RTlast,Response*strictAcc,Response*lenientAcc,Response*focus,Response*Focus
62b2f74cf3794e252cc7d1a7,ilo6wx0auk,"Mediated Recog Prolific",1,1,2023-05-08T22:07:46+00:00,6.4299468994141,5,versionC_stim.csv,ReadVersion_Recog.csv,"Read Recog",Read3,,,,,,0,Instruct,-,5,"In this section, you will be presented with a series of word pairs. Please study each word pair! Your memory will be tested!",Initial_Instruct,Instruct1,,6028,,,-1,-1,,,,0.926
62b2f74cf3794e252cc7d1a7,ilo6wx0auk,"Mediated Recog Prolific",1,2,2023-05-08T22:07:47+00:00,1.5465760231018,5,versionC_stim.csv,ReadVersion_Recog.csv,"Read Recog",Read3,,,,,,0,Instruct,User,-,"You will now begin. Press Enter when you are ready to begin.",,Instruct16,,1263,,,-1,-1,,,,1
62b2f74cf3794e252cc7d1a7,ilo6wx0auk,"Mediated Recog Prolific",1,3,2023-05-08T22:07:50+00:00,2.7240359783173,5,versionC_stim.csv,ReadVersion_Recog.csv,"Read Recog",Read3,PEANUT,BUTTER,BUFFER1,Buffer,3,4,Study,User,-,,Study/JOL,BUFFER,,2412,,,-1,-1,,,,1
62b2f74cf3794e252cc7d1a7,ilo6wx0auk,"Mediated Recog Prolific",1,4,2023-05-08T22:07:51+00:00,0.92839598655701,5,versionC_stim.csv,ReadVersion_Recog.csv,"Read Recog",Read3,TREES,GREEN,BUFFER1,Buffer,1,6,Study,User,-,,Study/JOL,BUFFER,,640,,,-1,-1,,,,1
62b2f74cf3794e252cc7d1a7,ilo6wx0auk,"Mediated Recog Prolific",1,5,2023-05-08T22:07:53+00:00,1.7683010101318,5,versionC_stim.csv,ReadVersion_Recog.csv,"Read Recog",Read3,PITCHER,CATCHER,BUFFER1,Buffer,2,3,Study,User,-,,Study/JOL,BUFFER,,1479,,,-1,-1,,,,1
62b2f74cf3794e252cc7d1a7,ilo6wx0auk,"Mediated Recog Prolific",1,6,2023-05-08T22:07:54+00:00,1.6655790805817,5,versionC_stim.csv,ReadVersion_Recog.csv,"Read Recog",Read3,SCARE,FRIGHT,BUFFER1,Buffer,4,5,Study,User,-,,Study/JOL,BUFFER,,1373,,,-1,-1,,,,1
62b2f74cf3794e252cc7d1a7,ilo6wx0auk,"Mediated Recog Prolific",1,7,2023-05-08T22:07:56+00:00,1.5038170814514,5,versionC_stim.csv,ReadVersion_Recog.csv,"Read Recog",Read3,SPACE,JAM,BUFFER1,Buffer,5,2,Study,User,-,,Study/JOL,BUFFER,,1206,,,-1,-1,,,,1
62b2f74cf3794e252cc7d1a7,ilo6wx0auk,"Mediated Recog Prolific",1,8,2023-05-08T22:07:57+00:00,1.0472149848938,5,versionC_stim.csv,ReadVersion_Recog.csv,"Read Recog",Read3,CAKE,HAND,Study1,U,49,46,Study,User,-,,Study/JOL,"Study Phase",,761,,,-1,-1,,,,1
62b2f74cf3794e252cc7d1a7,ilo6wx0auk,"Mediated Recog Prolific",1,9,2023-05-08T22:07:59+00:00,1.8239948749542,5,versionC_stim.csv,ReadVersion_Recog.csv,"Read Recog",Read3,MEAT,KEYS,Study1,U,41,11,Study,User,-,,Study/JOL,"Study Phase",,1539,,,-1,-1,,,,1
62b2f74cf3794e252cc7d1a7,ilo6wx0auk,"Mediated Recog Prolific",1,10,2023-05-08T22:08:00+00:00,1.5736651420593,5,versionC_stim.csv,ReadVersion_Recog.csv,"Read Recog",Read3,CEILING,CARPET,Study1,M,15,33,Study,User,-,,Study/JOL,"Study Phase",,1289,,,-1,-1,,,,1
62b2f74cf3794e252cc7d1a7,ilo6wx0auk,"Mediated Recog Prolific",1,11,2023-05-08T22:08:02+00:00,1.4157860279083,5,versionC_stim.csv,ReadVersion_Recog.csv,"Read Recog",Read3,ORCHID,FLOWER,Study1,F,34,12,Study,User,-,,Study/JOL,"Study Phase",,1133,,,-1,-1,,,,1
62b2f74cf3794e252cc7d1a7,ilo6wx0auk,"Mediated Recog Prolific",1,12,2023-05-08T22:08:03+00:00,1.1595988273621,5,versionC_stim.csv,ReadVersion_Recog.csv,"Read Recog",Read3,MULE,DONKEY,Study1,F,30,7,Study,User,-,,Study/JOL,"Study Phase",,871,,,-1,-1,,,,1
62b2f74cf3794e252cc7d1a7,ilo6wx0auk,"Mediated Recog Prolific",1,13,2023-05-08T22:08:04+00:00,1.2185561656952,5,versionC_stim.csv,ReadVersion_Recog.csv,"Read Recog",Read3,LISTEN,FICTION,Study1,U,44,35,Study,User,-,,Study/JOL,"Study Phase",,931,,,-1,-1,,,,1
62b2f74cf3794e252cc7d1a7,ilo6wx0auk,"Mediated Recog Prolific",1,14,2023-05-08T22:08:06+00:00,1.5949618816376,5,versionC_stim.csv,ReadVersion_Recog.csv,"Read Recog",Read3,SCALP,HEAD,Study1,F,23,18,Study,User,-,,Study/JOL,"Study Phase",,1310,,,-1,-1,,,,1
62b2f74cf3794e252cc7d1a7,ilo6wx0auk,"Mediated Recog Prolific",1,15,2023-05-08T22:08:07+00:00,1.4585900306702,5,versionC_stim.csv,ReadVersion_Recog.csv,"Read Recog",Read3,SOON,BELT,Study1,U,46,42,Study,User,-,,Study/JOL,"Study Phase",,1174,,,-1,-1,,,,1
62b2f74cf3794e252cc7d1a7,ilo6wx0auk,"Mediated Recog Prolific",1,16,2023-05-08T22:08:08+00:00,1.1172568798065,5,versionC_stim.csv,ReadVersion_Recog.csv,"Read Recog",Read3,CREDIT,CARD,Study1,F,33,43,Study,User,-,,Study/JOL,"Study Phase",,833,,,-1,-1,,,,1
62b2f74cf3794e252cc7d1a7,ilo6wx0auk,"Mediated Recog Prolific",1,17,2023-05-08T22:08:10+00:00,1.478728055954,5,versionC_stim.csv,ReadVersion_Recog.csv,"Read Recog",Read3,TREE,SYRUP,Study1,M,11,29,Study,User,-,,Study/JOL,"Study Phase",,1192,,,-1,-1,,,,1
62b2f74cf3794e252cc7d1a7,ilo6wx0auk,"Mediated Recog Prolific",1,18,2023-05-08T22:08:11+00:00,1.5430819988251,5,versionC_stim.csv,ReadVersion_Recog.csv,"Read Recog",Read3,BIRTHDAY,PIE,Study1,M,9,24,Study,User,-,,Study/JOL,"Study Phase",,1256,,,-1,-1,,,,1
62b2f74cf3794e252cc7d1a7,ilo6wx0auk,"Mediated Recog Prolific",1,19,2023-05-08T22:08:13+00:00,1.3739409446716,5,versionC_stim.csv,ReadVersion_Recog.csv,"Read Recog",Read3,GIVE,STEAK,Study1,U,38,34,Study,User,-,,Study/JOL,"Study Phase",,1086,,,-1,-1,,,,1
62b2f74cf3794e252cc7d1a7,ilo6wx0auk,"Mediated Recog Prolific",1,20,2023-05-08T22:08:15+00:00,1.8600790500641,5,versionC_stim.csv,ReadVersion_Recog.csv,"Read Recog",Read3,SWAN,BIRD,Study1,F,26,13,Study,User,-,,Study/JOL,"Study Phase",,1467,,,-1,-1,,,,1
62b2f74cf3794e252cc7d1a7,ilo6wx0auk,"Mediated Recog Prolific",1,21,2023-05-08T22:08:17+00:00,2.7400670051575,5,versionC_stim.csv,ReadVersion_Recog.csv,"Read Recog",Read3,CRY,BOTTLE,Study1,M,16,23,Study,User,-,,Study/JOL,"Study Phase",,2450,,,-1,-1,,,,1
62b2f74cf3794e252cc7d1a7,ilo6wx0auk,"Mediated Recog Prolific",1,22,2023-05-08T22:08:19+00:00,1.7272880077362,5,versionC_stim.csv,ReadVersion_Recog.csv,"Read Recog",Read3,VEHICLE,CHARM,Study1,U,40,16,Study,User,-,,Study/JOL,"Study Phase",,1440,,,-1,-1,,,,1
62b2f74cf3794e252cc7d1a7,ilo6wx0auk,"Mediated Recog Prolific",1,23,2023-05-08T22:08:20+00:00,1.312616109848,5,versionC_stim.csv,ReadVersion_Recog.csv,"Read Recog",Read3,FUZZY,BANG,Study1,U,50,15,Study,User,-,,Study/JOL,"Study Phase",,1026,,,-1,-1,,,,1
62b2f74cf3794e252cc7d1a7,ilo6wx0auk,"Mediated Recog Prolific",1,24,2023-05-08T22:08:22+00:00,1.8711869716644,5,versionC_stim.csv,ReadVersion_Recog.csv,"Read Recog",Read3,BEACH,BOX,Study1,M,7,47,Study,User,-,,Study/JOL,"Study Phase",,1584,,,-1,-1,,,,1
62b2f74cf3794e252cc7d1a7,ilo6wx0auk,"Mediated Recog Prolific",1,25,2023-05-08T22:08:24+00:00,1.6660730838776,5,versionC_stim.csv,ReadVersion_Recog.csv,"Read Recog",Read3,WORD,SENTENCE,Study1,F,27,8,Study,User,-,,Study/JOL,"Study Phase",,1380,,,-1,-1,,,,0.8
62b2f74cf3794e252cc7d1a7,ilo6wx0auk,"Mediated Recog Prolific",1,26,2023-05-08T22:08:26+00:00,1.8518187999725,5,versionC_stim.csv,ReadVersion_Recog.csv,"Read Recog",Read3,NAP,SLEEP,Study1,F,29,32,Study,User,-,,Study/JOL,"Study Phase",,1566,,,-1,-1,,,,1
62b2f74cf3794e252cc7d1a7,ilo6wx0auk,"Mediated Recog Prolific",1,27,2023-05-08T22:08:28+00:00,2.5906221866608,5,versionC_stim.csv,ReadVersion_Recog.csv,"Read Recog",Read3,SHELL,SHAKE,Study1,U,43,28,Study,User,-,,Study/JOL,"Study Phase",,2301,,,-1,-1,,,,0.7
62b2f74cf3794e252cc7d1a7,ilo6wx0auk,"Mediated Recog Prolific",1,28,2023-05-08T22:08:30+00:00,1.3190009593964,5,versionC_stim.csv,ReadVersion_Recog.csv,"Read Recog",Read3,HARD,COTTON,Study1,M,20,44,Study,User,-,,Study/JOL,"Study Phase",,1033,,,-1,-1,,,,1
62b2f74cf3794e252cc7d1a7,ilo6wx0auk,"Mediated Recog Prolific",1,29,2023-05-08T22:08:30+00:00,0.78124284744263,5,versionC_stim.csv,ReadVersion_Recog.csv,"Read Recog",Read3,ROOT,PLANT,Study1,F,25,26,Study,User,-,,Study/JOL,"Study Phase",,499,,,-1,-1,,,,1
62b2f74cf3794e252cc7d1a7,ilo6wx0auk,"Mediated Recog Prolific",1,30,2023-05-08T22:08:31+00:00,1.0524880886078,5,versionC_stim.csv,ReadVersion_Recog.csv,"Read Recog",Read3,ROUGH,SILK,Study1,M,10,9,Study,User,-,,Study/JOL,"Study Phase",,765,,,-1,-1,,,,1
62b2f74cf3794e252cc7d1a7,ilo6wx0auk,"Mediated Recog Prolific",1,31,2023-05-08T22:08:34+00:00,2.0658369064331,5,versionC_stim.csv,ReadVersion_Recog.csv,"Read Recog",Read3,SIGN,TICK,Study1,U,47,51,Study,User,-,,Study/JOL,"Study Phase",,1780,,,-1,-1,,,,1
62b2f74cf3794e252cc7d1a7,ilo6wx0auk,"Mediated Recog Prolific",1,32,2023-05-08T22:08:37+00:00,3.4697651863098,5,versionC_stim.csv,ReadVersion_Recog.csv,"Read Recog",Read3,TEMPERATURE,MORNING,Study1,U,48,30,Study,User,-,,Study/JOL,"Study Phase",,3183,,,-1,-1,,,,0.625
62b2f74cf3794e252cc7d1a7,ilo6wx0auk,"Mediated Recog Prolific",1,33,2023-05-08T22:08:38+00:00,1.3206310272217,5,versionC_stim.csv,ReadVersion_Recog.csv,"Read Recog",Read3,SIP,DRINK,Study1,F,32,25,Study,User,-,,Study/JOL,"Study Phase",,1032,,,-1,-1,,,,1
62b2f74cf3794e252cc7d1a7,ilo6wx0auk,"Mediated Recog Prolific",1,34,2023-05-08T22:08:40+00:00,1.7761249542236,5,versionC_stim.csv,ReadVersion_Recog.csv,"Read Recog",Read3,LION,STRIPES,Study1,M,6,38,Study,User,-,,Study/JOL,"Study Phase",,1486,,,-1,-1,,,,1
62b2f74cf3794e252cc7d1a7,ilo6wx0auk,"Mediated Recog Prolific",1,35,2023-05-08T22:08:41+00:00,1.2370498180389,5,versionC_stim.csv,ReadVersion_Recog.csv,"Read Recog",Read3,AFFECTION,LOVE,Study1,F,31,10,Study,User,-,,Study/JOL,"Study Phase",,948,,,-1,-1,,,,1
62b2f74cf3794e252cc7d1a7,ilo6wx0auk,"Mediated Recog Prolific",1,36,2023-05-08T22:08:43+00:00,1.2145872116089,5,versionC_stim.csv,ReadVersion_Recog.csv,"Read Recog",Read3,HYGIENE,CLEAN,Study1,F,28,17,Study,User,-,,Study/JOL,"Study Phase",,914,,,-1,-1,,,,1
62b2f74cf3794e252cc7d1a7,ilo6wx0auk,"Mediated Recog Prolific",1,37,2023-05-08T22:08:44+00:00,1.1027019023895,5,versionC_stim.csv,ReadVersion_Recog.csv,"Read Recog",Read3,HORSE,WHEEL,Study1,M,14,22,Study,User,-,,Study/JOL,"Study Phase",,813,,,-1,-1,,,,1
62b2f74cf3794e252cc7d1a7,ilo6wx0auk,"Mediated Recog Prolific",1,38,2023-05-08T22:08:45+00:00,0.98237204551697,5,versionC_stim.csv,ReadVersion_Recog.csv,"Read Recog",Read3,MULE,DONKEY,Study1,F,24,41,Study,User,-,,Study/JOL,"Study Phase",,691,,,-1,-1,,,,1
62b2f74cf3794e252cc7d1a7,ilo6wx0auk,"Mediated Recog Prolific",1,39,2023-05-08T22:08:46+00:00,1.3378279209137,5,versionC_stim.csv,ReadVersion_Recog.csv,"Read Recog",Read3,KEYS,ROD,Study1,U,45,27,Study,User,-,,Study/JOL,"Study Phase",,1049,,,-1,-1,,,,1
62b2f74cf3794e252cc7d1a7,ilo6wx0auk,"Mediated Recog Prolific",1,40,2023-05-08T22:08:47+00:00,1.4874370098114,5,versionC_stim.csv,ReadVersion_Recog.csv,"Read Recog",Read3,TUNA,FISH,Study1,F,35,21,Study,User,-,,Study/JOL,"Study Phase",,1199,,,-1,-1,,,,1
62b2f74cf3794e252cc7d1a7,ilo6wx0auk,"Mediated Recog Prolific",1,41,2023-05-08T22:08:49+00:00,1.8246719837189,5,versionC_stim.csv,ReadVersion_Recog.csv,"Read Recog",Read3,MAZE,PHONE,Study1,U,42,36,Study,User,-,,Study/JOL,"Study Phase",,1534,,,-1,-1,,,,1
62b2f74cf3794e252cc7d1a7,ilo6wx0auk,"Mediated Recog Prolific",1,42,2023-05-08T22:08:51+00:00,1.289911031723,5,versionC_stim.csv,ReadVersion_Recog.csv,"Read Recog",Read3,TOOTH,HAIR,Study1,M,19,49,Study,User,-,,Study/JOL,"Study Phase",,1000,,,-1,-1,,,,1
62b2f74cf3794e252cc7d1a7,ilo6wx0auk,"Mediated Recog Prolific",1,43,2023-05-08T22:08:52+00:00,1.5368010997772,5,versionC_stim.csv,ReadVersion_Recog.csv,"Read Recog",Read3,WAGE,MONEY,Study1,F,22,37,Study,User,-,,Study/JOL,"Study Phase",,1249,,,-1,-1,,,,1
62b2f74cf3794e252cc7d1a7,ilo6wx0auk,"Mediated Recog Prolific",1,44,2023-05-08T22:08:54+00:00,1.8652889728546,5,versionC_stim.csv,ReadVersion_Recog.csv,"Read Recog",Read3,CIRCLE,DANCE,Study1,M,13,48,Study,User,-,,Study/JOL,"Study Phase",,1579,,,-1,-1,,,,1
62b2f74cf3794e252cc7d1a7,ilo6wx0auk,"Mediated Recog Prolific",1,45,2023-05-08T22:08:57+00:00,2.8367879390717,5,versionC_stim.csv,ReadVersion_Recog.csv,"Read Recog",Read3,LITTER,TRASH,Study1,F,21,31,Study,User,-,,Study/JOL,"Study Phase",,2546,,,-1,-1,,,,0.714
62b2f74cf3794e252cc7d1a7,ilo6wx0auk,"Mediated Recog Prolific",1,46,2023-05-08T22:08:58+00:00,1.0088551044464,5,versionC_stim.csv,ReadVersion_Recog.csv,"Read Recog",Read3,DAY,DARK,Study1,M,18,19,Study,User,-,,Study/JOL,"Study Phase",,722,,,-1,-1,,,,1
62b2f74cf3794e252cc7d1a7,ilo6wx0auk,"Mediated Recog Prolific",1,47,2023-05-08T22:08:59+00:00,1.3051469326019,5,versionC_stim.csv,ReadVersion_Recog.csv,"Read Recog",Read3,BAT,BOUNCE,Study1,M,12,14,Study,User,-,,Study/JOL,"Study Phase",,1019,,,-1,-1,,,,1
62b2f74cf3794e252cc7d1a7,ilo6wx0auk,"Mediated Recog Prolific",1,48,2023-05-08T22:09:01+00:00,1.8115270137787,5,versionC_stim.csv,ReadVersion_Recog.csv,"Read Recog",Read3,STRETCH,CLOTH,Study1,U,37,50,Study,User,-,,Study/JOL,"Study Phase",,1519,,,-1,-1,,,,1
62b2f74cf3794e252cc7d1a7,ilo6wx0auk,"Mediated Recog Prolific",1,49,2023-05-08T22:09:02+00:00,1.0600578784943,5,versionC_stim.csv,ReadVersion_Recog.csv,"Read Recog",Read3,WAR,QUIET,Study1,M,8,20,Study,User,-,,Study/JOL,"Study Phase",,773,,,-1,-1,,,,1
62b2f74cf3794e252cc7d1a7,ilo6wx0auk,"Mediated Recog Prolific",1,50,2023-05-08T22:09:05+00:00,3.1924569606781,5,versionC_stim.csv,ReadVersion_Recog.csv,"Read Recog",Read3,WEDDING,FINGER,Study1,M,17,39,Study,User,-,,Study/JOL,"Study Phase",,2906,,,-1,-1,,,,1
62b2f74cf3794e252cc7d1a7,ilo6wx0auk,"Mediated Recog Prolific",1,51,2023-05-08T22:09:06+00:00,1.0270431041718,5,versionC_stim.csv,ReadVersion_Recog.csv,"Read Recog",Read3,MIRROR,MAROON,Study1,U,36,45,Study,User,-,,Study/JOL,"Study Phase",,738,,,-1,-1,,,,1
62b2f74cf3794e252cc7d1a7,ilo6wx0auk,"Mediated Recog Prolific",1,52,2023-05-08T22:09:21+00:00,15.152950048447,5,versionC_stim.csv,ReadVersion_Recog.csv,"Read Recog",Read3,CRACKLE,ELECTION,Study1,U,39,40,Study,User,-,,Study/JOL,"Study Phase",,14370,,,-1,-1,,,,1
62b2f74cf3794e252cc7d1a7,ilo6wx0auk,"Mediated Recog Prolific",1,53,2023-05-08T22:09:24+00:00,2.4590649604797,5,versionC_stim.csv,ReadVersion_Recog.csv,"Read Recog",Read3,SHERRIF,POLICE,BUFFER2,Buffer,52,56,Study,User,-,,Study/JOL,BUFFER2,,2163,,,-1,-1,,,,0.667
62b2f74cf3794e252cc7d1a7,ilo6wx0auk,"Mediated Recog Prolific",1,54,2023-05-08T22:09:25+00:00,0.74385690689087,5,versionC_stim.csv,ReadVersion_Recog.csv,"Read Recog",Read3,MOON,SPACE,BUFFER2,Buffer,54,55,Study,User,-,,Study/JOL,BUFFER2,,455,,,-1,-1,,,,1
62b2f74cf3794e252cc7d1a7,ilo6wx0auk,"Mediated Recog Prolific",1,55,2023-05-08T22:09:26+00:00,1.3500940799713,5,versionC_stim.csv,ReadVersion_Recog.csv,"Read Recog",Read3,GEESE,GOOSE,BUFFER2,Buffer,51,53,Study,User,-,,Study/JOL,BUFFER2,,1063,,,-1,-1,,,,1
62b2f74cf3794e252cc7d1a7,ilo6wx0auk,"Mediated Recog Prolific",1,56,2023-05-08T22:09:27+00:00,1.2444438934326,5,versionC_stim.csv,ReadVersion_Recog.csv,"Read Recog",Read3,MALT,CHOCOLATE,BUFFER2,Buffer,53,54,Study,User,-,,Study/JOL,BUFFER2,,957,,,-1,-1,,,,1
62b2f74cf3794e252cc7d1a7,ilo6wx0auk,"Mediated Recog Prolific",1,57,2023-05-08T22:09:28+00:00,1.0462770462036,5,versionC_stim.csv,ReadVersion_Recog.csv,"Read Recog",Read3,THING,STUFF,BUFFER2,Buffer,55,52,Study,User,-,,Study/JOL,BUFFER2,,761,,,-1,-1,,,,1
62b2f74cf3794e252cc7d1a7,ilo6wx0auk,"Mediated Recog Prolific",1,58,2023-05-08T22:09:30+00:00,1.3544940948486,5,versionC_stim.csv,ReadVersion_Recog.csv,"Read Recog",Read3,,,,,,0,Instruct,User,-,"You have completed this section. Please press Enter.",Filler_Instruction,Instruct2,,1064,,,-1,-1,,,,1
62b2f74cf3794e252cc7d1a7,ilo6wx0auk,"Mediated Recog Prolific",1,59,2023-05-08T22:11:31+00:00,121.02231502533,5,versionC_stim.csv,ReadVersion_Recog.csv,"Read Recog",Read3,,,,,,0,FreeRecall,120,120,"Please list the 50 US states in alphabetical order. The task will automatically advance to the next screen after two minutes.",,Filler1,,120480,"Alabama, Alaska, Arkansas, California, Florida, Hawaii, Illinois, Ohio, Texas. West Virginia, Virginia.",0,11941,116197,0,0,,0.702
62b2f74cf3794e252cc7d1a7,ilo6wx0auk,"Mediated Recog Prolific",1,60,2023-05-08T22:11:43+00:00,12.686670064926,5,versionC_stim.csv,ReadVersion_Recog.csv,"Read Recog",Read3,,,,,,0,Instruct,User,10,"Your memory will now be tested. You will be presented with a series of words that may or may not have been previously presented alongside another word. If the word on the screen was previously studied, please select YES. If the word was not studied, select NO. PLEASE DO NOT SKIP ITEMS! Click next when you are ready to begin.",,Instruc7982154d,,12145,,,-1,-1,,,,0.963
62b2f74cf3794e252cc7d1a7,ilo6wx0auk,"Mediated Recog Prolific",1,61,2023-05-08T22:11:46+00:00,2.3357977867126,5,versionC_stim.csv,ReadVersion_Recog.csv,"Read Recog",Read3,,SEED,RECOG,CONTROL,65,112,Likert,User,1,"Was this item previously studied?",PRESENTED,Recog,1::2,2045,YES,28.571428571429,-1,-1,0,0,,1
62b2f74cf3794e252cc7d1a7,ilo6wx0auk,"Mediated Recog Prolific",1,62,2023-05-08T22:11:47+00:00,1.7084879875183,5,versionC_stim.csv,ReadVersion_Recog.csv,"Read Recog",Read3,,RED,RECOG,CONTROL,76,64,Likert,User,1,"Was this item previously studied?",CONTROL,Recog,1::2,1422,NO,0,-1,-1,0,0,,1
62b2f74cf3794e252cc7d1a7,ilo6wx0auk,"Mediated Recog Prolific",1,63,2023-05-08T22:11:49+00:00,1.3027760982513,5,versionC_stim.csv,ReadVersion_Recog.csv,"Read Recog",Read3,,CLOTH,RECOG,Presented,133,101,Likert,User,1,"Was this item previously studied?",CONTROL,Recog,1::2,1015,YES,0,-1,-1,0,0,,1
62b2f74cf3794e252cc7d1a7,ilo6wx0auk,"Mediated Recog Prolific",1,64,2023-05-08T22:11:50+00:00,1.6906969547272,5,versionC_stim.csv,ReadVersion_Recog.csv,"Read Recog",Read3,,SENTENCE,RECOG,Presented,123,140,Likert,User,1,"Was this item previously studied?",PRESENTED,Recog,1::2,1400,NO,20,-1,-1,0,0,,1
62b2f74cf3794e252cc7d1a7,ilo6wx0auk,"Mediated Recog Prolific",1,65,2023-05-08T22:11:52+00:00,1.6270289421082,5,versionC_stim.csv,ReadVersion_Recog.csv,"Read Recog",Read3,,MONEY,RECOG,Presented,118,111,Likert,User,1,"Was this item previously studied?",PRESENTED,Recog,1::2,1333,YES,25,-1,-1,0,0,,1
62b2f74cf3794e252cc7d1a7,ilo6wx0auk,"Mediated Recog Prolific",1,66,2023-05-08T22:11:53+00:00,1.556174993515,5,versionC_stim.csv,ReadVersion_Recog.csv,"Read Recog",Read3,,DONKEY,RECOG,Presented,126,115,Likert,User,1,"Was this item previously studied?",PRESENTED,Recog,1::2,1265,YES,22.222222222222,-1,-1,0,0,,1
62b2f74cf3794e252cc7d1a7,ilo6wx0auk,"Mediated Recog Prolific",1,67,2023-05-08T22:11:55+00:00,1.3270311355591,5,versionC_stim.csv,ReadVersion_Recog.csv,"Read Recog",Read3,,FIGHT,RECOG,CONTROL,82,130,Likert,User,1,"Was this item previously studied?",PRESENTED,Recog,1::2,1039,YES,0,-1,-1,0,0,,1
62b2f74cf3794e252cc7d1a7,ilo6wx0auk,"Mediated Recog Prolific",1,68,2023-05-08T22:11:56+00:00,1.3883640766144,5,versionC_stim.csv,ReadVersion_Recog.csv,"Read Recog",Read3,,FISH,RECOG,Presented,131,132,Likert,User,1,"Was this item previously studied?",PRESENTED,Recog,1::2,1099,YES,28.571428571429,-1,-1,0,0,,1
62b2f74cf3794e252cc7d1a7,ilo6wx0auk,"Mediated Recog Prolific",1,69,2023-05-08T22:11:58+00:00,1.4793968200684,5,versionC_stim.csv,ReadVersion_Recog.csv,"Read Recog",Read3,,KEYS,RECOG,Presented,137,139,Likert,User,1,"Was this item previously studied?",PRESENTED,Recog,1::2,1191,YES,57.142857142857,-1,-1,0,0,,1
62b2f74cf3794e252cc7d1a7,ilo6wx0auk,"Mediated Recog Prolific",1,70,2023-05-08T22:11:59+00:00,1.4595301151276,5,versionC_stim.csv,ReadVersion_Recog.csv,"Read Recog",Read3,,SILK,RECOG,Presented,106,58,Likert,User,1,"Was this item previously studied?",CONTROL,Recog,1::2,1164,YES,28.571428571429,-1,-1,0,0,,1
62b2f74cf3794e252cc7d1a7,ilo6wx0auk,"Mediated Recog Prolific",1,71,2023-05-08T22:12:01+00:00,1.4787840843201,5,versionC_stim.csv,ReadVersion_Recog.csv,"Read Recog",Read3,,STING,RECOG,CONTROL,81,69,Likert,User,1,"Was this item previously studied?",CONTROL,Recog,1::2,1189,NO,28.571428571429,-1,-1,0,0,,1
62b2f74cf3794e252cc7d1a7,ilo6wx0auk,"Mediated Recog Prolific",1,72,2023-05-08T22:12:02+00:00,1.6776359081268,5,versionC_stim.csv,ReadVersion_Recog.csv,"Read Recog",Read3,,CARD,RECOG,Presented,129,81,Likert,User,1,"Was this item previously studied?",CONTROL,Recog,1::2,1387,YES,0,-1,-1,0,0,,1
62b2f74cf3794e252cc7d1a7,ilo6wx0auk,"Mediated Recog Prolific",1,73,2023-05-08T22:12:04+00:00,1.5657489299774,5,versionC_stim.csv,ReadVersion_Recog.csv,"Read Recog",Read3,,COLD,RECOG,CONTROL,83,124,Likert,User,1,"Was this item previously studied?",PRESENTED,Recog,1::2,1276,NO,33.333333333333,-1,-1,0,0,,1
62b2f74cf3794e252cc7d1a7,ilo6wx0auk,"Mediated Recog Prolific",1,74,2023-05-08T22:12:05+00:00,1.5943341255188,5,versionC_stim.csv,ReadVersion_Recog.csv,"Read Recog",Read3,,TICK,RECOG,Presented,143,121,Likert,User,1,"Was this item previously studied?",PRESENTED,Recog,1::2,1305,YES,0,-1,-1,0,0,,1
62b2f74cf3794e252cc7d1a7,ilo6wx0auk,"Mediated Recog Prolific",1,75,2023-05-08T22:12:07+00:00,1.5672769546509,5,versionC_stim.csv,ReadVersion_Recog.csv,"Read Recog",Read3,,HEAD,RECOG,Presented,119,143,Likert,User,1,"Was this item previously studied?",PRESENTED,Recog,1::2,1280,NO,0,-1,-1,0,0,,1
62b2f74cf3794e252cc7d1a7,ilo6wx0auk,"Mediated Recog Prolific",1,76,2023-05-08T22:12:08+00:00,1.3244390487671,5,versionC_stim.csv,ReadVersion_Recog.csv,"Read Recog",Read3,,COTTON,RECOG,Presented,116,71,Likert,User,1,"Was this item previously studied?",CONTROL,Recog,1::2,1032,YES,0,-1,-1,0,0,,1
62b2f74cf3794e252cc7d1a7,ilo6wx0auk,"Mediated Recog Prolific",1,77,2023-05-08T22:12:10+00:00,1.4887638092041,5,versionC_stim.csv,ReadVersion_Recog.csv,"Read Recog",Read3,,BUSINESS,RECOG,CONTROL,95,122,Likert,User,1,"Was this item previously studied?",PRESENTED,Recog,1::2,1199,NO,20,-1,-1,0,0,,1
62b2f74cf3794e252cc7d1a7,ilo6wx0auk,"Mediated Recog Prolific",1,78,2023-05-08T22:12:12+00:00,1.7102310657501,5,versionC_stim.csv,ReadVersion_Recog.csv,"Read Recog",Read3,,FINGER,RECOG,Presented,113,61,Likert,User,1,"Was this item previously studied?",CONTROL,Recog,1::2,1423,YES,22.222222222222,-1,-1,0,0,,1
62b2f74cf3794e252cc7d1a7,ilo6wx0auk,"Mediated Recog Prolific",1,79,2023-05-08T22:12:13+00:00,1.7035801410675,5,versionC_stim.csv,ReadVersion_Recog.csv,"Read Recog",Read3,,WHEEL,RECOG,Presented,110,123,Likert,User,1,"Was this item previously studied?",PRESENTED,Recog,1::2,1233,YES,25,-1,-1,0,0,,1
62b2f74cf3794e252cc7d1a7,ilo6wx0auk,"Mediated Recog Prolific",1,80,2023-05-08T22:12:15+00:00,1.5830159187317,5,versionC_stim.csv,ReadVersion_Recog.csv,"Read Recog",Read3,,BELT,RECOG,Presented,142,84,Likert,User,1,"Was this item previously studied?",CONTROL,Recog,1::2,1287,NO,0,-1,-1,0,0,,1
62b2f74cf3794e252cc7d1a7,ilo6wx0auk,"Mediated Recog Prolific",1,81,2023-05-08T22:12:16+00:00,1.5874710083008,5,versionC_stim.csv,ReadVersion_Recog.csv,"Read Recog",Read3,,SLEEP,RECOG,Presented,125,80,Likert,User,1,"Was this item previously studied?",CONTROL,Recog,1::2,1296,YES,25,-1,-1,0,0,,1
62b2f74cf3794e252cc7d1a7,ilo6wx0auk,"Mediated Recog Prolific",1,82,2023-05-08T22:12:18+00:00,1.5440449714661,5,versionC_stim.csv,ReadVersion_Recog.csv,"Read Recog",Read3,,BANG,RECOG,Presented,146,92,Likert,User,1,"Was this item previously studied?",CONTROL,Recog,1::2,1256,YES,0,-1,-1,0,0,,1
62b2f74cf3794e252cc7d1a7,ilo6wx0auk,"Mediated Recog Prolific",1,83,2023-05-08T22:12:19+00:00,1.4076020717621,5,versionC_stim.csv,ReadVersion_Recog.csv,"Read Recog",Read3,,VASE,RECOG,CONTROL,87,117,Likert,User,1,"Was this item previously studied?",PRESENTED,Recog,1::2,1120,NO,0,-1,-1,0,0,,1
62b2f74cf3794e252cc7d1a7,ilo6wx0auk,"Mediated Recog Prolific",1,84,2023-05-08T22:12:21+00:00,1.8702569007874,5,versionC_stim.csv,ReadVersion_Recog.csv,"Read Recog",Read3,,CHILDREN,RECOG,CONTROL,100,57,Likert,User,1,"Was this item previously studied?",CONTROL,Recog,1::2,1579,YES,18.181818181818,-1,-1,0,0,,1
62b2f74cf3794e252cc7d1a7,ilo6wx0auk,"Mediated Recog Prolific",1,85,2023-05-08T22:12:23+00:00,1.4935040473938,5,versionC_stim.csv,ReadVersion_Recog.csv,"Read Recog",Read3,,DRINK,RECOG,Presented,128,96,Likert,User,1,"Was this item previously studied?",CONTROL,Recog,1::2,1202,YES,0,-1,-1,0,0,,1
62b2f74cf3794e252cc7d1a7,ilo6wx0auk,"Mediated Recog Prolific",1,86,2023-05-08T22:12:24+00:00,1.3562269210815,5,versionC_stim.csv,ReadVersion_Recog.csv,"Read Recog",Read3,,ISLAND,RECOG,CONTROL,60,70,Likert,User,1,"Was this item previously studied?",CONTROL,Recog,1::2,1068,NO,25,-1,-1,0,0,,1
62b2f74cf3794e252cc7d1a7,ilo6wx0auk,"Mediated Recog Prolific",1,87,2023-05-08T22:12:26+00:00,1.5608730316162,5,versionC_stim.csv,ReadVersion_Recog.csv,"Read Recog",Read3,,SMELL,RECOG,CONTROL,79,67,Likert,User,1,"Was this item previously studied?",CONTROL,Recog,1::2,1272,NO,0,-1,-1,0,0,,1
62b2f74cf3794e252cc7d1a7,ilo6wx0auk,"Mediated Recog Prolific",1,88,2023-05-08T22:12:27+00:00,1.475683927536,5,versionC_stim.csv,ReadVersion_Recog.csv,"Read Recog",Read3,,QUIET,RECOG,Presented,104,85,Likert,User,1,"Was this item previously studied?",CONTROL,Recog,1::2,1188,NO,0,-1,-1,0,0,,1
62b2f74cf3794e252cc7d1a7,ilo6wx0auk,"Mediated Recog Prolific",1,89,2023-05-08T22:12:31+00:00,4.2270460128784,5,versionC_stim.csv,ReadVersion_Recog.csv,"Read Recog",Read3,,CLUTTER,RECOG,CONTROL,92,63,Likert,User,1,"Was this item previously studied?",CONTROL,Recog,1::2,3934,NO,0,-1,-1,0,0,,0.8
62b2f74cf3794e252cc7d1a7,ilo6wx0auk,"Mediated Recog Prolific",1,90,2023-05-08T22:12:33+00:00,1.8899140357971,5,versionC_stim.csv,ReadVersion_Recog.csv,"Read Recog",Read3,,LOVE,RECOG,Presented,127,91,Likert,User,1,"Was this item previously studied?",CONTROL,Recog,1::2,1602,NO,33.333333333333,-1,-1,0,0,,1
62b2f74cf3794e252cc7d1a7,ilo6wx0auk,"Mediated Recog Prolific",1,91,2023-05-08T22:12:35+00:00,1.6688270568848,5,versionC_stim.csv,ReadVersion_Recog.csv,"Read Recog",Read3,,BIRD,RECOG,Presented,122,72,Likert,User,1,"Was this item previously studied?",CONTROL,Recog,1::2,1381,,,-1,-1,,,,1
62b2f74cf3794e252cc7d1a7,ilo6wx0auk,"Mediated Recog Prolific",1,92,2023-05-08T22:12:37+00:00,1.7641310691833,5,versionC_stim.csv,ReadVersion_Recog.csv,"Read Recog",Read3,,WATER,RECOG,CONTROL,86,120,Likert,User,1,"Was this item previously studied?",PRESENTED,Recog,1::2,1474,YES,25,-1,-1,0,0,,1
62b2f74cf3794e252cc7d1a7,ilo6wx0auk,"Mediated Recog Prolific",1,93,2023-05-08T22:12:38+00:00,1.3768329620361,5,versionC_stim.csv,ReadVersion_Recog.csv,"Read Recog",Read3,,HAMMER,RECOG,CONTROL,74,98,Likert,User,1,"Was this item previously studied?",CONTROL,Recog,1::2,1084,NO,0,-1,-1,0,0,,1
62b2f74cf3794e252cc7d1a7,ilo6wx0auk,"Mediated Recog Prolific",1,94,2023-05-08T22:12:40+00:00,1.9799950122833,5,versionC_stim.csv,ReadVersion_Recog.csv,"Read Recog",Read3,,PEAK,RECOG,CONTROL,69,99,Likert,User,1,"Was this item previously studied?",CONTROL,Recog,1::2,1481,YES,28.571428571429,-1,-1,0,0,,1
62b2f74cf3794e252cc7d1a7,ilo6wx0auk,"Mediated Recog Prolific",1,95,2023-05-08T22:12:42+00:00,1.6385459899902,5,versionC_stim.csv,ReadVersion_Recog.csv,"Read Recog",Read3,,FEATHER,RECOG,CONTROL,64,137,Likert,User,1,"Was this item previously studied?",PRESENTED,Recog,1::2,1347,YES,20,-1,-1,0,0,,1
62b2f74cf3794e252cc7d1a7,ilo6wx0auk,"Mediated Recog Prolific",1,96,2023-05-08T22:12:43+00:00,1.4635260105133,5,versionC_stim.csv,ReadVersion_Recog.csv,"Read Recog",Read3,,PAPER,RECOG,CONTROL,78,114,Likert,User,1,"Was this item previously studied?",PRESENTED,Recog,1::2,1174,NO,0,-1,-1,0,0,,1
62b2f74cf3794e252cc7d1a7,ilo6wx0auk,"Mediated Recog Prolific",1,97,2023-05-08T22:12:46+00:00,3.311735868454,5,versionC_stim.csv,ReadVersion_Recog.csv,"Read Recog",Read3,,CARPET,RECOG,Presented,111,144,Likert,User,1,"Was this item previously studied?",PRESENTED,Recog,1::2,3019,YES,22.222222222222,-1,-1,0,0,,1
62b2f74cf3794e252cc7d1a7,ilo6wx0auk,"Mediated Recog Prolific",1,98,2023-05-08T22:12:48+00:00,1.3860809803009,5,versionC_stim.csv,ReadVersion_Recog.csv,"Read Recog",Read3,,BRONZE,RECOG,CONTROL,99,119,Likert,User,1,"Was this item previously studied?",PRESENTED,Recog,1::2,1093,NO,25,-1,-1,0,0,,1
62b2f74cf3794e252cc7d1a7,ilo6wx0auk,"Mediated Recog Prolific",1,99,2023-05-08T22:12:50+00:00,2.360472202301,5,versionC_stim.csv,ReadVersion_Recog.csv,"Read Recog",Read3,,MUSCLE,RECOG,CONTROL,71,78,Likert,User,1,"Was this item previously studied?",CONTROL,Recog,1::2,2071,NO,0,-1,-1,0,0,,1
62b2f74cf3794e252cc7d1a7,ilo6wx0auk,"Mediated Recog Prolific",1,100,2023-05-08T22:12:52+00:00,1.3453848361969,5,versionC_stim.csv,ReadVersion_Recog.csv,"Read Recog",Read3,,ACCIDENT,RECOG,CONTROL,90,146,Likert,User,1,"Was this item previously studied?",PRESENTED,Recog,1::2,1055,NO,20,-1,-1,0,0,,1
62b2f74cf3794e252cc7d1a7,ilo6wx0auk,"Mediated Recog Prolific",1,101,2023-05-08T22:13:04+00:00,12.218168020248,5,versionC_stim.csv,ReadVersion_Recog.csv,"Read Recog",Read3,,CAVE,RECOG,CONTROL,66,106,Likert,User,1,"Was this item previously studied?",PRESENTED,Recog,1::2,11680,NO,0,-1,-1,0,0,,1
62b2f74cf3794e252cc7d1a7,ilo6wx0auk,"Mediated Recog Prolific",1,102,2023-05-08T22:13:05+00:00,1.4387919902802,5,versionC_stim.csv,ReadVersion_Recog.csv,"Read Recog",Read3,,PLANT,RECOG,CONTROL,72,60,Likert,User,1,"Was this item previously studied?",CONTROL,Recog,1::2,1142,YES,0,-1,-1,0,0,,1
62b2f74cf3794e252cc7d1a7,ilo6wx0auk,"Mediated Recog Prolific",1,103,2023-05-08T22:13:07+00:00,1.5774619579315,5,versionC_stim.csv,ReadVersion_Recog.csv,"Read Recog",Read3,,TRASH,RECOG,Presented,117,116,Likert,User,1,"Was this item previously studied?",PRESENTED,Recog,1::2,1290,YES,25,-1,-1,0,0,,1
62b2f74cf3794e252cc7d1a7,ilo6wx0auk,"Mediated Recog Prolific",1,104,2023-05-08T22:13:08+00:00,1.5738492012024,5,versionC_stim.csv,ReadVersion_Recog.csv,"Read Recog",Read3,,BOUNCE,RECOG,Presented,108,133,Likert,User,1,"Was this item previously studied?",PRESENTED,Recog,1::2,1287,YES,22.222222222222,-1,-1,0,0,,1
62b2f74cf3794e252cc7d1a7,ilo6wx0auk,"Mediated Recog Prolific",1,105,2023-05-08T22:13:10+00:00,1.607451915741,5,versionC_stim.csv,ReadVersion_Recog.csv,"Read Recog",Read3,,STEAK,RECOG,Presented,134,125,Likert,User,1,"Was this item previously studied?",PRESENTED,Recog,1::2,1316,YES,25,-1,-1,0,0,,1
62b2f74cf3794e252cc7d1a7,ilo6wx0auk,"Mediated Recog Prolific",1,106,2023-05-08T22:13:12+00:00,1.7329440116882,5,versionC_stim.csv,ReadVersion_Recog.csv,"Read Recog",Read3,,BASKET,RECOG,CONTROL,67,76,Likert,User,1,"Was this item previously studied?",CONTROL,Recog,1::2,1438,YES,22.222222222222,-1,-1,0,0,,1
62b2f74cf3794e252cc7d1a7,ilo6wx0auk,"Mediated Recog Prolific",1,107,2023-05-08T22:13:13+00:00,1.6068480014801,5,versionC_stim.csv,ReadVersion_Recog.csv,"Read Recog",Read3,,TOIL,RECOG,CONTROL,97,68,Likert,User,1,"Was this item previously studied?",CONTROL,Recog,1::2,1318,NO,33.333333333333,-1,-1,0,0,,1
62b2f74cf3794e252cc7d1a7,ilo6wx0auk,"Mediated Recog Prolific",1,108,2023-05-08T22:13:15+00:00,1.4529669284821,5,versionC_stim.csv,ReadVersion_Recog.csv,"Read Recog",Read3,,PIE,RECOG,Presented,105,118,Likert,User,1,"Was this item previously studied?",PRESENTED,Recog,1::2,1164,YES,33.333333333333,-1,-1,0,0,,1
62b2f74cf3794e252cc7d1a7,ilo6wx0auk,"Mediated Recog Prolific",1,109,2023-05-08T22:13:18+00:00,3.2518389225006,5,versionC_stim.csv,ReadVersion_Recog.csv,"Read Recog",Read3,,MORNING,RECOG,Presented,144,129,Likert,User,1,"Was this item previously studied?",PRESENTED,Recog,1::2,2965,NO,22.222222222222,-1,-1,0,0,,0.833
62b2f74cf3794e252cc7d1a7,ilo6wx0auk,"Mediated Recog Prolific",1,110,2023-05-08T22:13:20+00:00,1.6259341239929,5,versionC_stim.csv,ReadVersion_Recog.csv,"Read Recog",Read3,,SNOW,RECOG,CONTROL,57,95,Likert,User,1,"Was this item previously studied?",CONTROL,Recog,1::2,1333,NO,66.666666666667,-1,-1,0,0,,1
62b2f74cf3794e252cc7d1a7,ilo6wx0auk,"Mediated Recog Prolific",1,111,2023-05-08T22:13:21+00:00,1.4151680469513,5,versionC_stim.csv,ReadVersion_Recog.csv,"Read Recog",Read3,,CLOTHES,RECOG,CONTROL,75,131,Likert,User,1,"Was this item previously studied?",PRESENTED,Recog,1::2,1124,YES,40,-1,-1,0,0,,1
62b2f74cf3794e252cc7d1a7,ilo6wx0auk,"Mediated Recog Prolific",1,112,2023-05-08T22:13:24+00:00,2.994236946106,5,versionC_stim.csv,ReadVersion_Recog.csv,"Read Recog",Read3,,STRIPES,RECOG,Presented,102,136,Likert,User,1,"Was this item previously studied?",PRESENTED,Recog,1::2,2703,YES,40,-1,-1,0,0,,1
62b2f74cf3794e252cc7d1a7,ilo6wx0auk,"Mediated Recog Prolific",1,113,2023-05-08T22:13:26+00:00,2.1737771034241,5,versionC_stim.csv,ReadVersion_Recog.csv,"Read Recog",Read3,,CHARM,RECOG,Presented,136,127,Likert,User,1,"Was this item previously studied?",PRESENTED,Recog,1::2,1881,NO,0,-1,-1,0,0,,1
62b2f74cf3794e252cc7d1a7,ilo6wx0auk,"Mediated Recog Prolific",1,114,2023-05-08T22:13:29+00:00,2.5467448234558,5,versionC_stim.csv,ReadVersion_Recog.csv,"Read Recog",Read3,,COW,RECOG,CONTROL,84,107,Likert,User,1,"Was this item previously studied?",PRESENTED,Recog,1::2,2252,YES,0,-1,-1,0,0,,1
62b2f74cf3794e252cc7d1a7,ilo6wx0auk,"Mediated Recog Prolific",1,115,2023-05-08T22:13:30+00:00,1.3586540222168,5,versionC_stim.csv,ReadVersion_Recog.csv,"Read Recog",Read3,,WOLF,RECOG,CONTROL,89,102,Likert,User,1,"Was this item previously studied?",PRESENTED,Recog,1::2,1068,NO,33.333333333333,-1,-1,0,0,,1
62b2f74cf3794e252cc7d1a7,ilo6wx0auk,"Mediated Recog Prolific",1,116,2023-05-08T22:13:33+00:00,2.4522800445557,5,versionC_stim.csv,ReadVersion_Recog.csv,"Read Recog",Read3,,SHAKE,RECOG,Presented,139,73,Likert,User,1,"Was this item previously studied?",CONTROL,Recog,1::2,2161,YES,25,-1,-1,0,0,,1
62b2f74cf3794e252cc7d1a7,ilo6wx0auk,"Mediated Recog Prolific",1,117,2023-05-08T22:13:34+00:00,1.5675940513611,5,versionC_stim.csv,ReadVersion_Recog.csv,"Read Recog",Read3,,DRINK,RECOG,CONTROL,63,90,Likert,User,1,"Was this item previously studied?",CONTROL,Recog,1::2,1280,NO,28.571428571429,-1,-1,0,0,,1
62b2f74cf3794e252cc7d1a7,ilo6wx0auk,"Mediated Recog Prolific",1,118,2023-05-08T22:13:35+00:00,1.3605420589447,5,versionC_stim.csv,ReadVersion_Recog.csv,"Read Recog",Read3,,RIDDLE,RECOG,CONTROL,91,93,Likert,User,1,"Was this item previously studied?",CONTROL,Recog,1::2,1069,NO,0,-1,-1,0,0,,1
62b2f74cf3794e252cc7d1a7,ilo6wx0auk,"Mediated Recog Prolific",1,119,2023-05-08T22:13:37+00:00,1.5024979114532,5,versionC_stim.csv,ReadVersion_Recog.csv,"Read Recog",Read3,,FICTION,RECOG,Presented,140,108,Likert,User,1,"Was this item previously studied?",PRESENTED,Recog,1::2,1212,NO,22.222222222222,-1,-1,0,0,,1
62b2f74cf3794e252cc7d1a7,ilo6wx0auk,"Mediated Recog Prolific",1,120,2023-05-08T22:13:40+00:00,2.6694839000702,5,versionC_stim.csv,ReadVersion_Recog.csv,"Read Recog",Read3,,BUG,RECOG,CONTROL,85,103,Likert,User,1,"Was this item previously studied?",PRESENTED,Recog,1::2,2379,NO,0,-1,-1,0,0,,1
62b2f74cf3794e252cc7d1a7,ilo6wx0auk,"Mediated Recog Prolific",1,121,2023-05-08T22:13:41+00:00,1.4176371097565,5,versionC_stim.csv,ReadVersion_Recog.csv,"Read Recog",Read3,,LAWYER,RECOG,CONTROL,62,59,Likert,User,1,"Was this item previously studied?",CONTROL,Recog,1::2,1126,NO,0,-1,-1,0,0,,1
62b2f74cf3794e252cc7d1a7,ilo6wx0auk,"Mediated Recog Prolific",1,122,2023-05-08T22:13:43+00:00,1.485729932785,5,versionC_stim.csv,ReadVersion_Recog.csv,"Read Recog",Read3,,FIRE,RECOG,CONTROL,77,89,Likert,User,1,"Was this item previously studied?",CONTROL,Recog,1::2,1195,YES,28.571428571429,-1,-1,0,0,,1
62b2f74cf3794e252cc7d1a7,ilo6wx0auk,"Mediated Recog Prolific",1,123,2023-05-08T22:13:44+00:00,1.598433971405,5,versionC_stim.csv,ReadVersion_Recog.csv,"Read Recog",Read3,,STOP,RECOG,CONTROL,58,79,Likert,User,1,"Was this item previously studied?",CONTROL,Recog,1::2,1298,YES,28.571428571429,-1,-1,0,0,,1
62b2f74cf3794e252cc7d1a7,ilo6wx0auk,"Mediated Recog Prolific",1,124,2023-05-08T22:13:46+00:00,2.1996910572052,5,versionC_stim.csv,ReadVersion_Recog.csv,"Read Recog",Read3,,BASEBALL,RECOG,CONTROL,80,74,Likert,User,1,"Was this item previously studied?",CONTROL,Recog,1::2,1911,NO,0,-1,-1,0,0,,1
62b2f74cf3794e252cc7d1a7,ilo6wx0auk,"Mediated Recog Prolific",1,125,2023-05-08T22:13:48+00:00,1.5522549152374,5,versionC_stim.csv,ReadVersion_Recog.csv,"Read Recog",Read3,,HAND,RECOG,Presented,145,134,Likert,User,1,"Was this item previously studied?",PRESENTED,Recog,1::2,1260,YES,0,-1,-1,0,0,,1
62b2f74cf3794e252cc7d1a7,ilo6wx0auk,"Mediated Recog Prolific",1,126,2023-05-08T22:13:49+00:00,1.5505261421204,5,versionC_stim.csv,ReadVersion_Recog.csv,"Read Recog",Read3,,BOX,RECOG,Presented,103,77,Likert,User,1,"Was this item previously studied?",CONTROL,Recog,1::2,1256,NO,40,-1,-1,0,0,,1
62b2f74cf3794e252cc7d1a7,ilo6wx0auk,"Mediated Recog Prolific",1,127,2023-05-08T22:13:51+00:00,1.5774068832397,5,versionC_stim.csv,ReadVersion_Recog.csv,"Read Recog",Read3,,FLOWER,RECOG,Presented,130,142,Likert,User,1,"Was this item previously studied?",PRESENTED,Recog,1::2,1283,NO,25,-1,-1,0,0,,1
62b2f74cf3794e252cc7d1a7,ilo6wx0auk,"Mediated Recog Prolific",1,128,2023-05-08T22:13:55+00:00,4.2117140293121,5,versionC_stim.csv,ReadVersion_Recog.csv,"Read Recog",Read3,,SACK,RECOG,CONTROL,93,75,Likert,User,1,"Was this item previously studied?",CONTROL,Recog,1::2,3919,YES,28.571428571429,-1,-1,0,0,,0.938
62b2f74cf3794e252cc7d1a7,ilo6wx0auk,"Mediated Recog Prolific",1,129,2023-05-08T22:13:57+00:00,1.5714299678802,5,versionC_stim.csv,ReadVersion_Recog.csv,"Read Recog",Read3,,CUT,RECOG,CONTROL,73,141,Likert,User,1,"Was this item previously studied?",PRESENTED,Recog,1::2,1279,YES,0,-1,-1,0,0,,1
62b2f74cf3794e252cc7d1a7,ilo6wx0auk,"Mediated Recog Prolific",1,130,2023-05-08T22:13:58+00:00,1.4884140491486,5,versionC_stim.csv,ReadVersion_Recog.csv,"Read Recog",Read3,,KNOB,RECOG,CONTROL,70,87,Likert,User,1,"Was this item previously studied?",CONTROL,Recog,1::2,1193,NO,66.666666666667,-1,-1,0,0,,1
62b2f74cf3794e252cc7d1a7,ilo6wx0auk,"Mediated Recog Prolific",1,131,2023-05-08T22:14:00+00:00,1.772176027298,5,versionC_stim.csv,ReadVersion_Recog.csv,"Read Recog",Read3,,DONKEY,RECOG,Presented,120,113,Likert,User,1,"Was this item previously studied?",PRESENTED,Recog,1::2,1482,YES,22.222222222222,-1,-1,0,0,,1
62b2f74cf3794e252cc7d1a7,ilo6wx0auk,"Mediated Recog Prolific",1,132,2023-05-08T22:14:02+00:00,1.4938690662384,5,versionC_stim.csv,ReadVersion_Recog.csv,"Read Recog",Read3,,THIGH,RECOG,CONTROL,68,82,Likert,User,1,"Was this item previously studied?",CONTROL,Recog,1::2,1205,NO,0,-1,-1,0,0,,1
62b2f74cf3794e252cc7d1a7,ilo6wx0auk,"Mediated Recog Prolific",1,133,2023-05-08T22:14:03+00:00,1.7089619636536,5,versionC_stim.csv,ReadVersion_Recog.csv,"Read Recog",Read3,,SMELL,RECOG,CONTROL,61,128,Likert,User,1,"Was this item previously studied?",PRESENTED,Recog,1::2,1419,YES,25,-1,-1,0,0,,1
62b2f74cf3794e252cc7d1a7,ilo6wx0auk,"Mediated Recog Prolific",1,134,2023-05-08T22:14:05+00:00,1.6316800117493,5,versionC_stim.csv,ReadVersion_Recog.csv,"Read Recog",Read3,,MAROON,RECOG,Presented,132,110,Likert,User,1,"Was this item previously studied?",PRESENTED,Recog,1::2,1339,NO,25,-1,-1,0,0,,1
62b2f74cf3794e252cc7d1a7,ilo6wx0auk,"Mediated Recog Prolific",1,135,2023-05-08T22:14:06+00:00,1.4301428794861,5,versionC_stim.csv,ReadVersion_Recog.csv,"Read Recog",Read3,,COLLAR,RECOG,CONTROL,59,145,Likert,User,1,"Was this item previously studied?",PRESENTED,Recog,1::2,1130,NO,25,-1,-1,0,0,,1
62b2f74cf3794e252cc7d1a7,ilo6wx0auk,"Mediated Recog Prolific",1,136,2023-05-08T22:14:08+00:00,1.7279100418091,5,versionC_stim.csv,ReadVersion_Recog.csv,"Read Recog",Read3,,ELECTION,RECOG,Presented,135,105,Likert,User,1,"Was this item previously studied?",PRESENTED,Recog,1::2,1431,NO,20,-1,-1,0,0,,1
62b2f74cf3794e252cc7d1a7,ilo6wx0auk,"Mediated Recog Prolific",1,137,2023-05-08T22:14:10+00:00,1.555685043335,5,versionC_stim.csv,ReadVersion_Recog.csv,"Read Recog",Read3,,SYRUP,RECOG,Presented,107,65,Likert,User,1,"Was this item previously studied?",CONTROL,Recog,1::2,1263,NO,0,-1,-1,0,0,,1
62b2f74cf3794e252cc7d1a7,ilo6wx0auk,"Mediated Recog Prolific",1,138,2023-05-08T22:14:11+00:00,1.7434730529785,5,versionC_stim.csv,ReadVersion_Recog.csv,"Read Recog",Read3,,BOTTLE,RECOG,Presented,112,83,Likert,User,1,"Was this item previously studied?",CONTROL,Recog,1::2,1453,YES,22.222222222222,-1,-1,0,0,,1
62b2f74cf3794e252cc7d1a7,ilo6wx0auk,"Mediated Recog Prolific",1,139,2023-05-08T22:14:13+00:00,1.417454957962,5,versionC_stim.csv,ReadVersion_Recog.csv,"Read Recog",Read3,,HAIR,RECOG,Presented,115,66,Likert,User,1,"Was this item previously studied?",CONTROL,Recog,1::2,1121,NO,0,-1,-1,0,0,,1
62b2f74cf3794e252cc7d1a7,ilo6wx0auk,"Mediated Recog Prolific",1,140,2023-05-08T22:14:14+00:00,1.5781219005585,5,versionC_stim.csv,ReadVersion_Recog.csv,"Read Recog",Read3,,CLEAN,RECOG,Presented,124,126,Likert,User,1,"Was this item previously studied?",PRESENTED,Recog,1::2,1286,NO,28.571428571429,-1,-1,0,0,,1
62b2f74cf3794e252cc7d1a7,ilo6wx0auk,"Mediated Recog Prolific",1,141,2023-05-08T22:14:16+00:00,1.543505191803,5,versionC_stim.csv,ReadVersion_Recog.csv,"Read Recog",Read3,,LEG,RECOG,CONTROL,101,86,Likert,User,1,"Was this item previously studied?",CONTROL,Recog,1::2,1253,NO,0,-1,-1,0,0,,1
62b2f74cf3794e252cc7d1a7,ilo6wx0auk,"Mediated Recog Prolific",1,142,2023-05-08T22:14:17+00:00,1.5711197853088,5,versionC_stim.csv,ReadVersion_Recog.csv,"Read Recog",Read3,,OUNCE,RECOG,CONTROL,98,97,Likert,User,1,"Was this item previously studied?",CONTROL,Recog,1::2,1278,NO,28.571428571429,-1,-1,0,0,,1
62b2f74cf3794e252cc7d1a7,ilo6wx0auk,"Mediated Recog Prolific",1,143,2023-05-08T22:14:19+00:00,1.4150772094727,5,versionC_stim.csv,ReadVersion_Recog.csv,"Read Recog",Read3,,PLANT,RECOG,Presented,121,109,Likert,User,1,"Was this item previously studied?",PRESENTED,Recog,1::2,1126,YES,0,-1,-1,0,0,,1
62b2f74cf3794e252cc7d1a7,ilo6wx0auk,"Mediated Recog Prolific",1,144,2023-05-08T22:14:21+00:00,1.7982518672943,5,versionC_stim.csv,ReadVersion_Recog.csv,"Read Recog",Read3,,CAR,RECOG,CONTROL,88,88,Likert,User,1,"Was this item previously studied?",CONTROL,Recog,1::2,1506,YES,0,-1,-1,0,0,,1
62b2f74cf3794e252cc7d1a7,ilo6wx0auk,"Mediated Recog Prolific",1,145,2023-05-08T22:14:24+00:00,3.5501599311829,5,versionC_stim.csv,ReadVersion_Recog.csv,"Read Recog",Read3,,HIDE,RECOG,CONTROL,96,104,Likert,User,1,"Was this item previously studied?",PRESENTED,Recog,1::2,3258,NO,0,-1,-1,0,0,,1
62b2f74cf3794e252cc7d1a7,ilo6wx0auk,"Mediated Recog Prolific",1,146,2023-05-08T22:14:26+00:00,1.5673251152039,5,versionC_stim.csv,ReadVersion_Recog.csv,"Read Recog",Read3,,DARK,RECOG,Presented,114,138,Likert,User,1,"Was this item previously studied?",PRESENTED,Recog,1::2,1268,NO,0,-1,-1,0,0,,1
62b2f74cf3794e252cc7d1a7,ilo6wx0auk,"Mediated Recog Prolific",1,147,2023-05-08T22:14:27+00:00,1.5921120643616,5,versionC_stim.csv,ReadVersion_Recog.csv,"Read Recog",Read3,,PHONE,RECOG,Presented,138,135,Likert,User,1,"Was this item previously studied?",PRESENTED,Recog,1::2,1293,NO,28.571428571429,-1,-1,0,0,,1
62b2f74cf3794e252cc7d1a7,ilo6wx0auk,"Mediated Recog Prolific",1,148,2023-05-08T22:14:29+00:00,1.4160339832306,5,versionC_stim.csv,ReadVersion_Recog.csv,"Read Recog",Read3,,HORN,RECOG,CONTROL,94,100,Likert,User,1,"Was this item previously studied?",CONTROL,Recog,1::2,1120,YES,0,-1,-1,0,0,,1
62b2f74cf3794e252cc7d1a7,ilo6wx0auk,"Mediated Recog Prolific",1,149,2023-05-08T22:14:30+00:00,1.5507988929749,5,versionC_stim.csv,ReadVersion_Recog.csv,"Read Recog",Read3,,DANCE,RECOG,Presented,109,62,Likert,User,1,"Was this item previously studied?",CONTROL,Recog,1::2,1253,YES,25,-1,-1,0,0,,1
62b2f74cf3794e252cc7d1a7,ilo6wx0auk,"Mediated Recog Prolific",1,150,2023-05-08T22:14:32+00:00,1.4059450626373,5,versionC_stim.csv,ReadVersion_Recog.csv,"Read Recog",Read3,,ROD,RECOG,Presented,141,94,Likert,User,1,"Was this item previously studied?",CONTROL,Recog,1::2,1116,YES,0,-1,-1,0,0,,1
62b2f74cf3794e252cc7d1a7,ilo6wx0auk,"Mediated Recog Prolific",1,151,2023-05-08T22:14:33+00:00,1.0835049152374,5,versionC_stim.csv,ReadVersion_Recog.csv,"Read Recog",Read3,,,,,,0,Instruct,User,-,"You have completed this section. Please press Enter.",,Instruct7,,789,,,-1,-1,,,,1
62b2f74cf3794e252cc7d1a7,ilo6wx0auk,"Mediated Recog Prolific",1,152,2023-05-08T22:14:35+00:00,1.970174074173,5,versionC_stim.csv,ReadVersion_Recog.csv,"Read Recog",Read3,,,,,,0,Instruct,User,-,"The following screen will ask you a few questions abour your experience today. You must complete these questions to receive credit.",,Instruct8,,1292,,,-1,-1,,,,1
