Username,ID,ExperimentName,Session,Trial,Date,TimeDif,"Condition Number","Stimuli File","Order File","Condition Description","Condition Notes",Stimuli*Cue,Stimuli*Answer,Stimuli*Shuffle,"Stimuli*Stimuli Notes",Stimuli*Value,Procedure*Item,"Procedure*Trial Type","Procedure*Max Time","Procedure*Min Time",Procedure*Text,"Procedure*Procedure Notes",Procedure*Shuffle,Response*RT,Response*Response,Response*Accuracy,Response*RTfirst,Response*RTlast,Response*strictAcc,Response*lenientAcc,Response*focus,Response*JOL,Response*Focus
628e5f283594e1a48a04886f,38v4jkc8od,"Mediated Recall_Prolific",1,1,2023-02-05T22:32:27+00:00,11.727450847626,4,versionB_stim.csv,JOLVersion.csv,JOL,JOL2,,,,,,0,Instruct,-,5,"In this section, you will be presented with a series of word pairs. Please study each word pair! Your memory will be tested!",Initial_Instruct,Instruct1,11423,,,-1,-1,,,,,1
628e5f283594e1a48a04886f,38v4jkc8od,"Mediated Recall_Prolific",1,2,2023-02-05T22:32:48+00:00,21.254064083099,4,versionB_stim.csv,JOLVersion.csv,JOL,JOL2,,,,,,0,Instruct,-,10,"As you study, you will be asked to rate your ability to remember the second item in the pair if you were only shown the first at test. You will make these ratings using a 0 to 100 Scale.",,Instruct13,20873,,,-1,-1,,,,,1
628e5f283594e1a48a04886f,38v4jkc8od,"Mediated Recall_Prolific",1,3,2023-02-05T22:33:01+00:00,12.93058514595,4,versionB_stim.csv,JOLVersion.csv,JOL,JOL2,,,,,,0,Instruct,-,10,"For example, if you are given the pair CAT - DOG, a rating of 0 indicates that you would not remember DOG at test, while a rating of 100 indicates full certainty that you would remember the word DOG at test.",,Instruct14,12546,,,-1,-1,,,,,1
628e5f283594e1a48a04886f,38v4jkc8od,"Mediated Recall_Prolific",1,4,2023-02-05T22:33:12+00:00,11.241941928864,4,versionB_stim.csv,JOLVersion.csv,JOL,JOL2,,,,,,0,Instruct,-,10,"When making your ratings, it is criticial that you use the full range of the scale. You will be disqualified for only giving ratings of 0 or 100! After making your rating, press Enter to advance to the next pair.",,Instruct15,10860,,,-1,-1,,,,,1
628e5f283594e1a48a04886f,38v4jkc8od,"Mediated Recall_Prolific",1,5,2023-02-05T22:33:16+00:00,3.8065869808197,4,versionB_stim.csv,JOLVersion.csv,JOL,JOL2,,,,,,0,Instruct,User,-,"You will now begin the study. Press Enter when you are ready to begin.",,Instruct16,3583,,,-1,-1,,,,,1
628e5f283594e1a48a04886f,38v4jkc8od,"Mediated Recall_Prolific",1,6,2023-02-05T22:33:26+00:00,9.8315229415894,4,versionB_stim.csv,JOLVersion.csv,JOL,JOL2,MONTH,YEAR,BUFFER3,Buffer,2,4,JOL,User,-,"How likely are you to correctly recall the second item in the pair?|Type your response on a scale from 0-100 and then press Enter.",Study/JOL,BUFFER,9434,,,3330,3341,,,,90,1
628e5f283594e1a48a04886f,38v4jkc8od,"Mediated Recall_Prolific",1,7,2023-02-05T22:33:33+00:00,7.4079029560089,4,versionB_stim.csv,JOLVersion.csv,JOL,JOL2,SPRING,MARCH,BUFFER3,Buffer,4,5,JOL,User,-,"How likely are you to correctly recall the second item in the pair?|Type your response on a scale from 0-100 and then press Enter.",Study/JOL,BUFFER,7017,,,4923,4991,,,,80,1
628e5f283594e1a48a04886f,38v4jkc8od,"Mediated Recall_Prolific",1,8,2023-02-05T22:33:39+00:00,5.965231180191,4,versionB_stim.csv,JOLVersion.csv,JOL,JOL2,TOOL,SHED,BUFFER3,Buffer,3,2,JOL,User,-,"How likely are you to correctly recall the second item in the pair?|Type your response on a scale from 0-100 and then press Enter.",Study/JOL,BUFFER,5589,,,2903,3162,,,,75,1
628e5f283594e1a48a04886f,38v4jkc8od,"Mediated Recall_Prolific",1,9,2023-02-05T22:33:47+00:00,7.7814548015594,4,versionB_stim.csv,JOLVersion.csv,JOL,JOL2,DAYS,WEAKS,BUFFER3,Buffer,1,6,JOL,User,-,"How likely are you to correctly recall the second item in the pair?|Type your response on a scale from 0-100 and then press Enter.",Study/JOL,BUFFER,7392,,,4416,4486,,,,40,1
628e5f283594e1a48a04886f,38v4jkc8od,"Mediated Recall_Prolific",1,10,2023-02-05T22:33:54+00:00,6.9315130710602,4,versionB_stim.csv,JOLVersion.csv,JOL,JOL2,OCTOBER,SPOOKY,BUFFER3,Buffer,5,3,JOL,User,-,"How likely are you to correctly recall the second item in the pair?|Type your response on a scale from 0-100 and then press Enter.",Study/JOL,BUFFER,6562,,,2943,4374,,,,60,1
628e5f283594e1a48a04886f,38v4jkc8od,"Mediated Recall_Prolific",1,11,2023-02-05T22:34:01+00:00,7.5108780860901,4,versionB_stim.csv,JOLVersion.csv,JOL,JOL2,NURSE,LAWYER,Study2,M,11,47,JOL,User,-,"How likely are you to correctly recall the second item in the pair?|Type your response on a scale from 0-100 and then press Enter.",Study/JOL,"Study Phase",7141,,,4970,5261,,,,25,1
628e5f283594e1a48a04886f,38v4jkc8od,"Mediated Recall_Prolific",1,12,2023-02-05T22:34:09+00:00,7.0512490272522,4,versionB_stim.csv,JOLVersion.csv,JOL,JOL2,DIETARY,SACK,Study2,U,42,18,JOL,User,-,"How likely are you to correctly recall the second item in the pair?|Type your response on a scale from 0-100 and then press Enter.",Study/JOL,"Study Phase",6667,,,5040,5091,,,,20,1
628e5f283594e1a48a04886f,38v4jkc8od,"Mediated Recall_Prolific",1,13,2023-02-05T22:34:15+00:00,6.2716808319092,4,versionB_stim.csv,JOLVersion.csv,JOL,JOL2,INCENSE,SMELL,Study2,F,28,49,JOL,User,-,"How likely are you to correctly recall the second item in the pair?|Type your response on a scale from 0-100 and then press Enter.",Study/JOL,"Study Phase",5894,,,2159,2421,,,,75,1
628e5f283594e1a48a04886f,38v4jkc8od,"Mediated Recall_Prolific",1,14,2023-02-05T22:34:22+00:00,7.2725350856781,4,versionB_stim.csv,JOLVersion.csv,JOL,JOL2,SICK,HIDE,Study2,U,45,36,JOL,User,-,"How likely are you to correctly recall the second item in the pair?|Type your response on a scale from 0-100 and then press Enter.",Study/JOL,"Study Phase",6893,,,4169,4595,,,,60,1
628e5f283594e1a48a04886f,38v4jkc8od,"Mediated Recall_Prolific",1,15,2023-02-05T22:34:28+00:00,6.2074809074402,4,versionB_stim.csv,JOLVersion.csv,JOL,JOL2,HEAVY,FEATHER,Study2,M,13,13,JOL,User,-,"How likely are you to correctly recall the second item in the pair?|Type your response on a scale from 0-100 and then press Enter.",Study/JOL,"Study Phase",5819,,,3993,4310,,,,30,1
628e5f283594e1a48a04886f,38v4jkc8od,"Mediated Recall_Prolific",1,16,2023-02-05T22:34:36+00:00,7.332789182663,4,versionB_stim.csv,JOLVersion.csv,JOL,JOL2,HAPPY,CAR,Study2,U,37,45,JOL,User,-,"How likely are you to correctly recall the second item in the pair?|Type your response on a scale from 0-100 and then press Enter.",Study/JOL,"Study Phase",6946,,,4083,4366,,,,20,1
628e5f283594e1a48a04886f,38v4jkc8od,"Mediated Recall_Prolific",1,17,2023-02-05T22:34:47+00:00,11.556229829788,4,versionB_stim.csv,JOLVersion.csv,JOL,JOL2,LEASE,TOIL,Study2,U,46,26,JOL,User,-,"How likely are you to correctly recall the second item in the pair?|Type your response on a scale from 0-100 and then press Enter.",Study/JOL,"Study Phase",11155,,,5169,9748,,,,10,1
628e5f283594e1a48a04886f,38v4jkc8od,"Mediated Recall_Prolific",1,18,2023-02-05T22:34:55+00:00,8.1070430278778,4,versionB_stim.csv,JOLVersion.csv,JOL,JOL2,RAZOR,MUSCLE,Study2,M,20,44,JOL,User,-,"How likely are you to correctly recall the second item in the pair?|Type your response on a scale from 0-100 and then press Enter.",Study/JOL,"Study Phase",7723,,,6119,6273,,,,18,1
628e5f283594e1a48a04886f,38v4jkc8od,"Mediated Recall_Prolific",1,19,2023-02-05T22:35:01+00:00,5.7801949977875,4,versionB_stim.csv,JOLVersion.csv,JOL,JOL2,CHERRY,RED,Study2,F,25,50,JOL,User,-,"How likely are you to correctly recall the second item in the pair?|Type your response on a scale from 0-100 and then press Enter.",Study/JOL,"Study Phase",5404,,,3712,3965,,,,85,1
628e5f283594e1a48a04886f,38v4jkc8od,"Mediated Recall_Prolific",1,20,2023-02-05T22:35:08+00:00,6.6476860046387,4,versionB_stim.csv,JOLVersion.csv,JOL,JOL2,STRONG,ACCIDENT,Study2,U,39,9,JOL,User,-,"How likely are you to correctly recall the second item in the pair?|Type your response on a scale from 0-100 and then press Enter.",Study/JOL,"Study Phase",6275,,,4026,4532,,,,15,1
628e5f283594e1a48a04886f,38v4jkc8od,"Mediated Recall_Prolific",1,21,2023-02-05T22:35:12+00:00,3.8944780826569,4,versionB_stim.csv,JOLVersion.csv,JOL,JOL2,WASP,BUG,Study2,F,34,34,JOL,User,-,"How likely are you to correctly recall the second item in the pair?|Type your response on a scale from 0-100 and then press Enter.",Study/JOL,"Study Phase",3651,,,2199,2393,,,,80,1
628e5f283594e1a48a04886f,38v4jkc8od,"Mediated Recall_Prolific",1,22,2023-02-05T22:35:18+00:00,6.5998709201813,4,versionB_stim.csv,JOLVersion.csv,JOL,JOL2,BENCH,HORN,Study2,U,43,33,JOL,User,-,"How likely are you to correctly recall the second item in the pair?|Type your response on a scale from 0-100 and then press Enter.",Study/JOL,"Study Phase",6193,,,4221,4843,,,,20,1
628e5f283594e1a48a04886f,38v4jkc8od,"Mediated Recall_Prolific",1,23,2023-02-05T22:35:24+00:00,5.3826169967651,4,versionB_stim.csv,JOLVersion.csv,JOL,JOL2,CHOP,CUT,Study2,F,22,27,JOL,User,-,"How likely are you to correctly recall the second item in the pair?|Type your response on a scale from 0-100 and then press Enter.",Study/JOL,"Study Phase",4984,,,3774,3850,,,,80,1
628e5f283594e1a48a04886f,38v4jkc8od,"Mediated Recall_Prolific",1,24,2023-02-05T22:35:28+00:00,4.0692830085754,4,versionB_stim.csv,JOLVersion.csv,JOL,JOL2,BRIDGE,WATER,Study2,F,35,7,JOL,User,-,"How likely are you to correctly recall the second item in the pair?|Type your response on a scale from 0-100 and then press Enter.",Study/JOL,"Study Phase",3824,,,2135,2232,,,,90,1
628e5f283594e1a48a04886f,38v4jkc8od,"Mediated Recall_Prolific",1,25,2023-02-05T22:35:33+00:00,5.0389001369476,4,versionB_stim.csv,JOLVersion.csv,JOL,JOL2,EYES,SMELL,Study2,M,10,8,JOL,User,-,"How likely are you to correctly recall the second item in the pair?|Type your response on a scale from 0-100 and then press Enter.",Study/JOL,"Study Phase",4822,,,2944,3477,,,,25,1
628e5f283594e1a48a04886f,38v4jkc8od,"Mediated Recall_Prolific",1,26,2023-02-05T22:35:38+00:00,5.7237818241119,4,versionB_stim.csv,JOLVersion.csv,JOL,JOL2,CHISEL,HAMMER,Study2,F,23,48,JOL,User,-,"How likely are you to correctly recall the second item in the pair?|Type your response on a scale from 0-100 and then press Enter.",Study/JOL,"Study Phase",5345,,,4020,4166,,,,55,1
628e5f283594e1a48a04886f,38v4jkc8od,"Mediated Recall_Prolific",1,27,2023-02-05T22:35:43+00:00,4.8273801803589,4,versionB_stim.csv,JOLVersion.csv,JOL,JOL2,BLAZE,FIRE,Study2,F,26,51,JOL,User,-,"How likely are you to correctly recall the second item in the pair?|Type your response on a scale from 0-100 and then press Enter.",Study/JOL,"Study Phase",4587,,,3268,3376,,,,80,1
628e5f283594e1a48a04886f,38v4jkc8od,"Mediated Recall_Prolific",1,28,2023-02-05T22:35:50+00:00,7.1341028213501,4,versionB_stim.csv,JOLVersion.csv,JOL,JOL2,OVEN,BASKET,Study2,M,16,42,JOL,User,-,"How likely are you to correctly recall the second item in the pair?|Type your response on a scale from 0-100 and then press Enter.",Study/JOL,"Study Phase",6714,,,5143,5392,,,,17,1
628e5f283594e1a48a04886f,38v4jkc8od,"Mediated Recall_Prolific",1,29,2023-02-05T22:35:56+00:00,6.0639641284943,4,versionB_stim.csv,JOLVersion.csv,JOL,JOL2,DOCUMENT,PAPER,Study2,F,27,24,JOL,User,-,"How likely are you to correctly recall the second item in the pair?|Type your response on a scale from 0-100 and then press Enter.",Study/JOL,"Study Phase",5688,,,3097,3357,,,,75,1
628e5f283594e1a48a04886f,38v4jkc8od,"Mediated Recall_Prolific",1,30,2023-02-05T22:36:03+00:00,6.8162448406219,4,versionB_stim.csv,JOLVersion.csv,JOL,JOL2,RAKE,SEED,Study2,M,14,19,JOL,User,-,"How likely are you to correctly recall the second item in the pair?|Type your response on a scale from 0-100 and then press Enter.",Study/JOL,"Study Phase",6324,,,4452,5120,,,,16,1
628e5f283594e1a48a04886f,38v4jkc8od,"Mediated Recall_Prolific",1,31,2023-02-05T22:36:08+00:00,5.1099200248718,4,versionB_stim.csv,JOLVersion.csv,JOL,JOL2,CHILL,COLD,Study2,F,32,38,JOL,User,-,"How likely are you to correctly recall the second item in the pair?|Type your response on a scale from 0-100 and then press Enter.",Study/JOL,"Study Phase",4843,,,3240,3375,,,,90,1
628e5f283594e1a48a04886f,38v4jkc8od,"Mediated Recall_Prolific",1,32,2023-02-05T22:36:13+00:00,4.2838950157166,4,versionB_stim.csv,JOLVersion.csv,JOL,JOL2,FEUD,FIGHT,Study2,F,31,41,JOL,User,-,"How likely are you to correctly recall the second item in the pair?|Type your response on a scale from 0-100 and then press Enter.",Study/JOL,"Study Phase",4053,,,2561,2621,,,,90,1
628e5f283594e1a48a04886f,38v4jkc8od,"Mediated Recall_Prolific",1,33,2023-02-05T22:36:25+00:00,12.239907026291,4,versionB_stim.csv,JOLVersion.csv,JOL,JOL2,PANTS,COLLAR,Study2,M,8,46,JOL,User,-,"How likely are you to correctly recall the second item in the pair?|Type your response on a scale from 0-100 and then press Enter.",Study/JOL,"Study Phase",11864,,,3092,10700,,,,19,1
628e5f283594e1a48a04886f,38v4jkc8od,"Mediated Recall_Prolific",1,34,2023-02-05T22:36:29+00:00,4.041876077652,4,versionB_stim.csv,JOLVersion.csv,JOL,JOL2,SUGAR,RIDDLE,Study2,U,40,20,JOL,User,-,"How likely are you to correctly recall the second item in the pair?|Type your response on a scale from 0-100 and then press Enter.",Study/JOL,"Study Phase",3794,,,2610,2611,,,,5,1
628e5f283594e1a48a04886f,38v4jkc8od,"Mediated Recall_Prolific",1,35,2023-02-05T22:36:36+00:00,6.7663378715515,4,versionB_stim.csv,JOLVersion.csv,JOL,JOL2,VALLEY,PEAK,Study2,M,18,31,JOL,User,-,"How likely are you to correctly recall the second item in the pair?|Type your response on a scale from 0-100 and then press Enter.",Study/JOL,"Study Phase",6387,,,4443,4962,,,,75,1
628e5f283594e1a48a04886f,38v4jkc8od,"Mediated Recall_Prolific",1,36,2023-02-05T22:36:43+00:00,7.2480471134186,4,versionB_stim.csv,JOLVersion.csv,JOL,JOL2,SUMMER,SNOW,Study2,M,6,28,JOL,User,-,"How likely are you to correctly recall the second item in the pair?|Type your response on a scale from 0-100 and then press Enter.",Study/JOL,"Study Phase",6867,,,5615,5668,,,,14,1
628e5f283594e1a48a04886f,38v4jkc8od,"Mediated Recall_Prolific",1,37,2023-02-05T22:36:49+00:00,5.8200619220734,4,versionB_stim.csv,JOLVersion.csv,JOL,JOL2,DEATH,BUSINESS,Study2,U,44,22,JOL,User,-,"How likely are you to correctly recall the second item in the pair?|Type your response on a scale from 0-100 and then press Enter.",Study/JOL,"Study Phase",5434,,,4184,4184,,,,7,1
628e5f283594e1a48a04886f,38v4jkc8od,"Mediated Recall_Prolific",1,38,2023-02-05T22:36:54+00:00,5.6857261657715,4,versionB_stim.csv,JOLVersion.csv,JOL,JOL2,KING,VASE,Study2,U,36,25,JOL,User,-,"How likely are you to correctly recall the second item in the pair?|Type your response on a scale from 0-100 and then press Enter.",Study/JOL,"Study Phase",5284,,,3714,3906,,,,12,1
628e5f283594e1a48a04886f,38v4jkc8od,"Mediated Recall_Prolific",1,39,2023-02-05T22:37:00+00:00,5.606027841568,4,versionB_stim.csv,JOLVersion.csv,JOL,JOL2,CACTUS,PLANT,Study2,F,21,10,JOL,User,-,"How likely are you to correctly recall the second item in the pair?|Type your response on a scale from 0-100 and then press Enter.",Study/JOL,"Study Phase",5226,,,2959,4005,,,,59,1
628e5f283594e1a48a04886f,38v4jkc8od,"Mediated Recall_Prolific",1,40,2023-02-05T22:37:07+00:00,7.0763220787048,4,versionB_stim.csv,JOLVersion.csv,JOL,JOL2,GRILL,THIGH,Study2,M,17,43,JOL,User,-,"How likely are you to correctly recall the second item in the pair?|Type your response on a scale from 0-100 and then press Enter.",Study/JOL,"Study Phase",6687,,,4610,5285,,,,15,1
628e5f283594e1a48a04886f,38v4jkc8od,"Mediated Recall_Prolific",1,41,2023-02-05T22:37:14+00:00,6.9083330631256,4,versionB_stim.csv,JOLVersion.csv,JOL,JOL2,REALITY,ISLAND,Study2,M,9,40,JOL,User,-,"How likely are you to correctly recall the second item in the pair?|Type your response on a scale from 0-100 and then press Enter.",Study/JOL,"Study Phase",6521,,,4584,5277,,,,75,1
628e5f283594e1a48a04886f,38v4jkc8od,"Mediated Recall_Prolific",1,42,2023-02-05T22:37:22+00:00,7.5602757930756,4,versionB_stim.csv,JOLVersion.csv,JOL,JOL2,WINDOW,KNOB,Study2,M,19,23,JOL,User,-,"How likely are you to correctly recall the second item in the pair?|Type your response on a scale from 0-100 and then press Enter.",Study/JOL,"Study Phase",7187,,,3468,5850,,,,20,1
628e5f283594e1a48a04886f,38v4jkc8od,"Mediated Recall_Prolific",1,43,2023-02-05T22:37:31+00:00,9.3314130306244,4,versionB_stim.csv,JOLVersion.csv,JOL,JOL2,PUSH,CLUTTER,Study2,U,41,29,JOL,User,-,"How likely are you to correctly recall the second item in the pair?|Type your response on a scale from 0-100 and then press Enter.",Study/JOL,"Study Phase",8946,,,4211,7919,,,,23,1
628e5f283594e1a48a04886f,38v4jkc8od,"Mediated Recall_Prolific",1,44,2023-02-05T22:37:34+00:00,3.3519501686096,4,versionB_stim.csv,JOLVersion.csv,JOL,JOL2,BOTH,OUNCE,Study2,U,47,14,JOL,User,-,"How likely are you to correctly recall the second item in the pair?|Type your response on a scale from 0-100 and then press Enter.",Study/JOL,"Study Phase",3103,,,2278,2278,,,,5,1
628e5f283594e1a48a04886f,38v4jkc8od,"Mediated Recall_Prolific",1,45,2023-02-05T22:37:39+00:00,4.5325179100037,4,versionB_stim.csv,JOLVersion.csv,JOL,JOL2,ART,WOLF,Study2,U,38,30,JOL,User,-,"How likely are you to correctly recall the second item in the pair?|Type your response on a scale from 0-100 and then press Enter.",Study/JOL,"Study Phase",4304,,,3262,3837,,,,10,1
628e5f283594e1a48a04886f,38v4jkc8od,"Mediated Recall_Prolific",1,46,2023-02-05T22:37:45+00:00,6.2556180953979,4,versionB_stim.csv,JOLVersion.csv,JOL,JOL2,HORNET,STING,Study2,F,30,16,JOL,User,-,"How likely are you to correctly recall the second item in the pair?|Type your response on a scale from 0-100 and then press Enter.",Study/JOL,"Study Phase",5881,,,2189,5062,,,,89,1
628e5f283594e1a48a04886f,38v4jkc8od,"Mediated Recall_Prolific",1,47,2023-02-05T22:37:50+00:00,4.6736578941345,4,versionB_stim.csv,JOLVersion.csv,JOL,JOL2,SCHOOL,STOP,Study2,M,7,11,JOL,User,-,"How likely are you to correctly recall the second item in the pair?|Type your response on a scale from 0-100 and then press Enter.",Study/JOL,"Study Phase",4442,,,3584,3972,,,,50,1
628e5f283594e1a48a04886f,38v4jkc8od,"Mediated Recall_Prolific",1,48,2023-02-05T22:37:56+00:00,6.0356221199036,4,versionB_stim.csv,JOLVersion.csv,JOL,JOL2,CASH,LEG,Study2,U,50,39,JOL,User,-,"How likely are you to correctly recall the second item in the pair?|Type your response on a scale from 0-100 and then press Enter.",Study/JOL,"Study Phase",5635,,,3946,5167,,,,15,1
628e5f283594e1a48a04886f,38v4jkc8od,"Mediated Recall_Prolific",1,49,2023-02-05T22:38:01+00:00,5.0597848892212,4,versionB_stim.csv,JOLVersion.csv,JOL,JOL2,TRAP,CAVE,Study2,M,15,17,JOL,User,-,"How likely are you to correctly recall the second item in the pair?|Type your response on a scale from 0-100 and then press Enter.",Study/JOL,"Study Phase",4835,,,3937,4466,,,,50,1
628e5f283594e1a48a04886f,38v4jkc8od,"Mediated Recall_Prolific",1,50,2023-02-05T22:38:05+00:00,4.4629230499268,4,versionB_stim.csv,JOLVersion.csv,JOL,JOL2,ATTIRE,CLOTHES,Study2,F,24,12,JOL,User,-,"How likely are you to correctly recall the second item in the pair?|Type your response on a scale from 0-100 and then press Enter.",Study/JOL,"Study Phase",4234,,,3539,3698,,,,78,1
628e5f283594e1a48a04886f,38v4jkc8od,"Mediated Recall_Prolific",1,51,2023-02-05T22:38:10+00:00,4.2964930534363,4,versionB_stim.csv,JOLVersion.csv,JOL,JOL2,MIRROR,CHILDREN,Study2,U,49,15,JOL,User,-,"How likely are you to correctly recall the second item in the pair?|Type your response on a scale from 0-100 and then press Enter.",Study/JOL,"Study Phase",4062,,,2505,2540,,,,32,1
628e5f283594e1a48a04886f,38v4jkc8od,"Mediated Recall_Prolific",1,52,2023-02-05T22:38:14+00:00,4.9118549823761,4,versionB_stim.csv,JOLVersion.csv,JOL,JOL2,HERD,COW,Study2,F,33,35,JOL,User,-,"How likely are you to correctly recall the second item in the pair?|Type your response on a scale from 0-100 and then press Enter.",Study/JOL,"Study Phase",4683,,,2965,4211,,,,88,1
628e5f283594e1a48a04886f,38v4jkc8od,"Mediated Recall_Prolific",1,53,2023-02-05T22:38:18+00:00,4.0009398460388,4,versionB_stim.csv,JOLVersion.csv,JOL,JOL2,SOAP,DRINK,Study2,M,12,32,JOL,User,-,"How likely are you to correctly recall the second item in the pair?|Type your response on a scale from 0-100 and then press Enter.",Study/JOL,"Study Phase",3771,,,2996,2996,,,,5,1
628e5f283594e1a48a04886f,38v4jkc8od,"Mediated Recall_Prolific",1,54,2023-02-05T22:38:22+00:00,3.2711491584778,4,versionB_stim.csv,JOLVersion.csv,JOL,JOL2,ARTERY,BRONZE,Study2,U,48,37,JOL,User,-,"How likely are you to correctly recall the second item in the pair?|Type your response on a scale from 0-100 and then press Enter.",Study/JOL,"Study Phase",3048,,,2623,2623,,,,2,1
628e5f283594e1a48a04886f,38v4jkc8od,"Mediated Recall_Prolific",1,55,2023-02-05T22:38:25+00:00,3.5606048107147,4,versionB_stim.csv,JOLVersion.csv,JOL,JOL2,LEAGUE,BASEBALL,Study2,F,29,21,JOL,User,-,"How likely are you to correctly recall the second item in the pair?|Type your response on a scale from 0-100 and then press Enter.",Study/JOL,"Study Phase",3341,,,2243,2639,,,,87,1
628e5f283594e1a48a04886f,38v4jkc8od,"Mediated Recall_Prolific",1,56,2023-02-05T22:38:29+00:00,3.735659122467,4,versionB_stim.csv,JOLVersion.csv,JOL,JOL2,THING,STUFF,BUFFER2,Buffer,110,108,JOL,User,-,"How likely are you to correctly recall the second item in the pair?|Type your response on a scale from 0-100 and then press Enter.",Study/JOL,BUFFER2,3518,,,2578,3043,,,,40,1
628e5f283594e1a48a04886f,38v4jkc8od,"Mediated Recall_Prolific",1,57,2023-02-05T22:38:33+00:00,3.7623250484467,4,versionB_stim.csv,JOLVersion.csv,JOL,JOL2,PEANUT,BUTTER,BUFFER1,Buffer,58,61,JOL,User,-,"How likely are you to correctly recall the second item in the pair?|Type your response on a scale from 0-100 and then press Enter.",Study/JOL,BUFFER2,3535,,,2625,3016,,,,90,1
628e5f283594e1a48a04886f,38v4jkc8od,"Mediated Recall_Prolific",1,58,2023-02-05T22:38:38+00:00,4.8138208389282,4,versionB_stim.csv,JOLVersion.csv,JOL,JOL2,MALT,CHOCOLATE,BUFFER2,Buffer,108,107,JOL,User,-,"How likely are you to correctly recall the second item in the pair?|Type your response on a scale from 0-100 and then press Enter.",Study/JOL,BUFFER2,4571,,,3097,4003,,,,80,1
628e5f283594e1a48a04886f,38v4jkc8od,"Mediated Recall_Prolific",1,59,2023-02-05T22:38:43+00:00,4.9440062046051,4,versionB_stim.csv,JOLVersion.csv,JOL,JOL2,SCARE,FRIGHT,BUFFER1,Buffer,59,59,JOL,User,-,"How likely are you to correctly recall the second item in the pair?|Type your response on a scale from 0-100 and then press Enter.",Study/JOL,BUFFER2,4717,,,3651,3965,,,,70,1
628e5f283594e1a48a04886f,38v4jkc8od,"Mediated Recall_Prolific",1,60,2023-02-05T22:38:45+00:00,2.9198508262634,4,versionB_stim.csv,JOLVersion.csv,JOL,JOL2,MOON,SPACE,BUFFER2,Buffer,109,110,JOL,User,-,"How likely are you to correctly recall the second item in the pair?|Type your response on a scale from 0-100 and then press Enter.",Study/JOL,BUFFER2,2689,,,1722,2067,,,,70,1
628e5f283594e1a48a04886f,38v4jkc8od,"Mediated Recall_Prolific",1,61,2023-02-05T22:38:48+00:00,2.4541900157928,4,versionB_stim.csv,JOLVersion.csv,JOL,JOL2,,,,,,0,Instruct,User,-,"You have completed this section. Please press Enter.",Filler_Instruction,Instruct2,2238,,,-1,-1,,,,,1
628e5f283594e1a48a04886f,38v4jkc8od,"Mediated Recall_Prolific",1,62,2023-02-05T22:40:48+00:00,120.41392612457,4,versionB_stim.csv,JOLVersion.csv,JOL,JOL2,,,,,,0,FreeRecall,120,120,"Please list the 50 US states in alphabetical order. The task will automatically advance to the next screen after two minutes.",,Filler1,120003,"Alabama, Alaska, Arizona, Arkansas, California, Colorado, Delaware, Florida, Georgia, Idaho, Iowa, ",0,5100,118737,0,0,,,1
628e5f283594e1a48a04886f,38v4jkc8od,"Mediated Recall_Prolific",1,63,2023-02-05T22:41:09+00:00,21.085057020187,4,versionB_stim.csv,JOLVersion.csv,JOL,JOL2,,,,,,0,Instruct,-,10,"You will now be presented with the first word from each of the previously studied item pairs. Please type the missing word. If you do not know the word, you may guess or press Enter to skip forward to the next pair.",,Instruct3,20687,,,-1,-1,,,,,1
628e5f283594e1a48a04886f,38v4jkc8od,"Mediated Recall_Prolific",1,64,2023-02-05T22:41:19+00:00,9.7204489707947,4,versionB_stim.csv,JOLVersion.csv,JOL,JOL2,CHERRY,RED,Study2,F,25,50,Test,User,-,,Recall,Recall1,9333,Sweet,25,6227,6683,0,0,,,1
628e5f283594e1a48a04886f,38v4jkc8od,"Mediated Recall_Prolific",1,65,2023-02-05T22:41:22+00:00,2.8195419311523,4,versionB_stim.csv,JOLVersion.csv,JOL,JOL2,BLAZE,FIRE,Study2,F,26,51,Test,User,-,,Recall,Recall1,2586,FIRE,100,1486,1678,1,1,,,1
628e5f283594e1a48a04886f,38v4jkc8od,"Mediated Recall_Prolific",1,66,2023-02-05T22:41:25+00:00,2.5130589008331,4,versionB_stim.csv,JOLVersion.csv,JOL,JOL2,PUSH,CLUTTER,Study2,U,41,29,Test,User,-,,Recall,Recall1,2284,JUNK,18.181818181818,1521,2001,0,0,,,1
628e5f283594e1a48a04886f,38v4jkc8od,"Mediated Recall_Prolific",1,67,2023-02-05T22:41:27+00:00,2.6548130512238,4,versionB_stim.csv,JOLVersion.csv,JOL,JOL2,NURSE,LAWYER,Study2,M,11,47,Test,User,-,,Recall,Recall1,2432,LAWYER,100,1522,2074,1,1,,,1
628e5f283594e1a48a04886f,38v4jkc8od,"Mediated Recall_Prolific",1,68,2023-02-05T22:41:34+00:00,7.0963699817657,4,versionB_stim.csv,JOLVersion.csv,JOL,JOL2,STRONG,ACCIDENT,Study2,U,39,9,Test,User,-,,Recall,Recall1,6701,ACCIDENT,100,4703,5799,1,1,,,1
628e5f283594e1a48a04886f,38v4jkc8od,"Mediated Recall_Prolific",1,69,2023-02-05T22:41:36+00:00,1.9652891159058,4,versionB_stim.csv,JOLVersion.csv,JOL,JOL2,VALLEY,PEAK,Study2,M,18,31,Test,User,-,,Recall,Recall1,1723,PEAK,100,1130,1414,1,1,,,1
628e5f283594e1a48a04886f,38v4jkc8od,"Mediated Recall_Prolific",1,70,2023-02-05T22:41:44+00:00,7.3221118450165,4,versionB_stim.csv,JOLVersion.csv,JOL,JOL2,HEAVY,FEATHER,Study2,M,13,13,Test,User,-,,Recall,Recall1,6931,,0,-1,-1,0,0,,,1
628e5f283594e1a48a04886f,38v4jkc8od,"Mediated Recall_Prolific",1,71,2023-02-05T22:41:54+00:00,10.341006994247,4,versionB_stim.csv,JOLVersion.csv,JOL,JOL2,DIETARY,SACK,Study2,U,42,18,Test,User,-,,Recall,Recall1,9953,APPLE,22.222222222222,8707,9438,0,0,,,1
628e5f283594e1a48a04886f,38v4jkc8od,"Mediated Recall_Prolific",1,72,2023-02-05T22:42:03+00:00,9.1835181713104,4,versionB_stim.csv,JOLVersion.csv,JOL,JOL2,DOCUMENT,PAPER,Study2,F,27,24,Test,User,-,,Recall,Recall1,8778,PAPER,100,3586,7328,1,1,,,1
628e5f283594e1a48a04886f,38v4jkc8od,"Mediated Recall_Prolific",1,73,2023-02-05T22:42:06+00:00,3.2088749408722,4,versionB_stim.csv,JOLVersion.csv,JOL,JOL2,WINDOW,KNOB,Study2,M,19,23,Test,User,-,,Recall,Recall1,2978,KNOB,100,2341,2677,1,1,,,1
628e5f283594e1a48a04886f,38v4jkc8od,"Mediated Recall_Prolific",1,74,2023-02-05T22:42:09+00:00,2.6638081073761,4,versionB_stim.csv,JOLVersion.csv,JOL,JOL2,KING,VASE,Study2,U,36,25,Test,User,-,,Recall,Recall1,2441,VASE,100,1869,2075,1,1,,,1
628e5f283594e1a48a04886f,38v4jkc8od,"Mediated Recall_Prolific",1,75,2023-02-05T22:42:12+00:00,2.850261926651,4,versionB_stim.csv,JOLVersion.csv,JOL,JOL2,REALITY,ISLAND,Study2,M,9,40,Test,User,-,,Recall,Recall1,2615,ISLAND,100,1736,2351,1,1,,,1
628e5f283594e1a48a04886f,38v4jkc8od,"Mediated Recall_Prolific",1,76,2023-02-05T22:42:14+00:00,2.4257218837738,4,versionB_stim.csv,JOLVersion.csv,JOL,JOL2,SUMMER,SNOW,Study2,M,6,28,Test,User,-,,Recall,Recall1,2200,SNOW,100,1690,1864,1,1,,,1
628e5f283594e1a48a04886f,38v4jkc8od,"Mediated Recall_Prolific",1,77,2023-02-05T22:42:17+00:00,3.2022111415863,4,versionB_stim.csv,JOLVersion.csv,JOL,JOL2,EYES,SMELL,Study2,M,10,8,Test,User,-,,Recall,Recall1,2960,SMELL,100,1200,2068,1,1,,,1
628e5f283594e1a48a04886f,38v4jkc8od,"Mediated Recall_Prolific",1,78,2023-02-05T22:42:21+00:00,3.1221339702606,4,versionB_stim.csv,JOLVersion.csv,JOL,JOL2,HAPPY,CAR,Study2,U,37,45,Test,User,-,,Recall,Recall1,2897,VEHICLE,20,1833,2594,0,0,,,1
628e5f283594e1a48a04886f,38v4jkc8od,"Mediated Recall_Prolific",1,79,2023-02-05T22:42:28+00:00,7.007994890213,4,versionB_stim.csv,JOLVersion.csv,JOL,JOL2,RAZOR,MUSCLE,Study2,M,20,44,Test,User,-,,Recall,Recall1,6551,STRENGTH,28.571428571429,2675,3630,0,0,,,1
628e5f283594e1a48a04886f,38v4jkc8od,"Mediated Recall_Prolific",1,80,2023-02-05T22:42:32+00:00,4.1717820167542,4,versionB_stim.csv,JOLVersion.csv,JOL,JOL2,MIRROR,CHILDREN,Study2,U,49,15,Test,User,-,,Recall,Recall1,3930,CHILDREN,100,1755,2583,1,1,,,1
628e5f283594e1a48a04886f,38v4jkc8od,"Mediated Recall_Prolific",1,81,2023-02-05T22:42:39+00:00,7.1799149513245,4,versionB_stim.csv,JOLVersion.csv,JOL,JOL2,ARTERY,BRONZE,Study2,U,48,37,Test,User,-,,Recall,Recall1,6790,,0,-1,-1,0,0,,,1
628e5f283594e1a48a04886f,38v4jkc8od,"Mediated Recall_Prolific",1,82,2023-02-05T22:42:42+00:00,3.2041120529175,4,versionB_stim.csv,JOLVersion.csv,JOL,JOL2,ATTIRE,CLOTHES,Study2,F,24,12,Test,User,-,,Recall,Recall1,2968,CLOTHES,100,1987,2606,1,1,,,1
628e5f283594e1a48a04886f,38v4jkc8od,"Mediated Recall_Prolific",1,83,2023-02-05T22:42:46+00:00,3.9598779678345,4,versionB_stim.csv,JOLVersion.csv,JOL,JOL2,PANTS,COLLAR,Study2,M,8,46,Test,User,-,,Recall,Recall1,3728,COLLAR,100,2525,3403,1,1,,,1
628e5f283594e1a48a04886f,38v4jkc8od,"Mediated Recall_Prolific",1,84,2023-02-05T22:42:49+00:00,2.6760849952698,4,versionB_stim.csv,JOLVersion.csv,JOL,JOL2,SICK,HIDE,Study2,U,45,36,Test,User,-,,Recall,Recall1,2459,HIDE,100,1859,2212,1,1,,,1
628e5f283594e1a48a04886f,38v4jkc8od,"Mediated Recall_Prolific",1,85,2023-02-05T22:42:55+00:00,6.1322441101074,4,versionB_stim.csv,JOLVersion.csv,JOL,JOL2,OVEN,BASKET,Study2,M,16,42,Test,User,-,,Recall,Recall1,5750,BASKET,100,2968,3852,1,1,,,1
628e5f283594e1a48a04886f,38v4jkc8od,"Mediated Recall_Prolific",1,86,2023-02-05T22:43:01+00:00,6.0578110218048,4,versionB_stim.csv,JOLVersion.csv,JOL,JOL2,GRILL,THIGH,Study2,M,17,43,Test,User,-,,Recall,Recall1,5654,FLAME,0,4328,4653,0,0,,,1
628e5f283594e1a48a04886f,38v4jkc8od,"Mediated Recall_Prolific",1,87,2023-02-05T22:43:06+00:00,5.0618538856506,4,versionB_stim.csv,JOLVersion.csv,JOL,JOL2,HERD,COW,Study2,F,33,35,Test,User,-,,Recall,Recall1,4818,COW,100,1306,2512,1,1,,,1
628e5f283594e1a48a04886f,38v4jkc8od,"Mediated Recall_Prolific",1,88,2023-02-05T22:43:17+00:00,11.186717033386,4,versionB_stim.csv,JOLVersion.csv,JOL,JOL2,ART,WOLF,Study2,U,38,30,Test,User,-,,Recall,Recall1,10811,,0,-1,-1,0,0,,,1
628e5f283594e1a48a04886f,38v4jkc8od,"Mediated Recall_Prolific",1,89,2023-02-05T22:43:25+00:00,7.6732020378113,4,versionB_stim.csv,JOLVersion.csv,JOL,JOL2,CHILL,COLD,Study2,F,32,38,Test,User,-,,Recall,Recall1,7281,WINTER,0,3424,4074,0,0,,,1
628e5f283594e1a48a04886f,38v4jkc8od,"Mediated Recall_Prolific",1,90,2023-02-05T22:43:27+00:00,2.3346569538116,4,versionB_stim.csv,JOLVersion.csv,JOL,JOL2,FEUD,FIGHT,Study2,F,31,41,Test,User,-,,Recall,Recall1,2108,FIGHT,100,1424,1786,1,1,,,1
628e5f283594e1a48a04886f,38v4jkc8od,"Mediated Recall_Prolific",1,91,2023-02-05T22:43:31+00:00,3.5969369411469,4,versionB_stim.csv,JOLVersion.csv,JOL,JOL2,CHISEL,HAMMER,Study2,F,23,48,Test,User,-,,Recall,Recall1,3377,HAMMER,100,2056,2698,1,1,,,1
628e5f283594e1a48a04886f,38v4jkc8od,"Mediated Recall_Prolific",1,92,2023-02-05T22:43:34+00:00,3.4790661334991,4,versionB_stim.csv,JOLVersion.csv,JOL,JOL2,CACTUS,PLANT,Study2,F,21,10,Test,User,-,,Recall,Recall1,3239,PLANT,100,1108,2984,1,1,,,1
628e5f283594e1a48a04886f,38v4jkc8od,"Mediated Recall_Prolific",1,93,2023-02-05T22:43:38+00:00,3.3855240345001,4,versionB_stim.csv,JOLVersion.csv,JOL,JOL2,BENCH,HORN,Study2,U,43,33,Test,User,-,,Recall,Recall1,3151,HORN,100,2508,2728,1,1,,,1
628e5f283594e1a48a04886f,38v4jkc8od,"Mediated Recall_Prolific",1,94,2023-02-05T22:43:42+00:00,4.6080009937286,4,versionB_stim.csv,JOLVersion.csv,JOL,JOL2,SCHOOL,STOP,Study2,M,7,11,Test,User,-,,Recall,Recall1,4374,STOP,100,2160,2519,1,1,,,1
628e5f283594e1a48a04886f,38v4jkc8od,"Mediated Recall_Prolific",1,95,2023-02-05T22:43:50+00:00,8.0807509422302,4,versionB_stim.csv,JOLVersion.csv,JOL,JOL2,LEASE,TOIL,Study2,U,46,26,Test,User,-,,Recall,Recall1,7704,,0,-1,-1,0,0,,,1
628e5f283594e1a48a04886f,38v4jkc8od,"Mediated Recall_Prolific",1,96,2023-02-05T22:43:53+00:00,2.3495790958405,4,versionB_stim.csv,JOLVersion.csv,JOL,JOL2,INCENSE,SMELL,Study2,F,28,49,Test,User,-,,Recall,Recall1,2123,SMELL,100,1175,1821,1,1,,,1
628e5f283594e1a48a04886f,38v4jkc8od,"Mediated Recall_Prolific",1,97,2023-02-05T22:43:58+00:00,4.8334519863129,4,versionB_stim.csv,JOLVersion.csv,JOL,JOL2,CASH,LEG,Study2,U,50,39,Test,User,-,,Recall,Recall1,4612,LEG,100,2508,3266,1,1,,,1
628e5f283594e1a48a04886f,38v4jkc8od,"Mediated Recall_Prolific",1,98,2023-02-05T22:44:01+00:00,3.5609569549561,4,versionB_stim.csv,JOLVersion.csv,JOL,JOL2,HORNET,STING,Study2,F,30,16,Test,User,-,,Recall,Recall1,3328,STING,100,1314,1656,1,1,,,1
628e5f283594e1a48a04886f,38v4jkc8od,"Mediated Recall_Prolific",1,99,2023-02-05T22:44:07+00:00,6.2349638938904,4,versionB_stim.csv,JOLVersion.csv,JOL,JOL2,WASP,BUG,Study2,F,34,34,Test,User,-,,Recall,Recall1,5861,INSECT,0,2244,2831,0,0,,,1
628e5f283594e1a48a04886f,38v4jkc8od,"Mediated Recall_Prolific",1,100,2023-02-05T22:44:10+00:00,2.7567021846771,4,versionB_stim.csv,JOLVersion.csv,JOL,JOL2,BRIDGE,WATER,Study2,F,35,7,Test,User,-,,Recall,Recall1,2532,WATER,100,1261,1553,1,1,,,1
628e5f283594e1a48a04886f,38v4jkc8od,"Mediated Recall_Prolific",1,101,2023-02-05T22:44:26+00:00,15.953866004944,4,versionB_stim.csv,JOLVersion.csv,JOL,JOL2,RAKE,SEED,Study2,M,14,19,Test,User,-,,Recall,Recall1,15571,SEED,100,3905,12481,1,1,,,1
628e5f283594e1a48a04886f,38v4jkc8od,"Mediated Recall_Prolific",1,102,2023-02-05T22:44:30+00:00,3.6457109451294,4,versionB_stim.csv,JOLVersion.csv,JOL,JOL2,DEATH,BUSINESS,Study2,U,44,22,Test,User,-,,Recall,Recall1,3411,BUSINESS,100,2076,3009,1,1,,,1
628e5f283594e1a48a04886f,38v4jkc8od,"Mediated Recall_Prolific",1,103,2023-02-05T22:44:36+00:00,6.1385588645935,4,versionB_stim.csv,JOLVersion.csv,JOL,JOL2,BOTH,OUNCE,Study2,U,47,14,Test,User,-,,Recall,Recall1,5758,,0,-1,-1,0,0,,,1
628e5f283594e1a48a04886f,38v4jkc8od,"Mediated Recall_Prolific",1,104,2023-02-05T22:44:41+00:00,5.6212539672852,4,versionB_stim.csv,JOLVersion.csv,JOL,JOL2,SUGAR,RIDDLE,Study2,U,40,20,Test,User,-,,Recall,Recall1,5243,,0,-1,-1,0,0,,,1
628e5f283594e1a48a04886f,38v4jkc8od,"Mediated Recall_Prolific",1,105,2023-02-05T22:44:50+00:00,8.6601560115814,4,versionB_stim.csv,JOLVersion.csv,JOL,JOL2,CHOP,CUT,Study2,F,22,27,Test,User,-,,Recall,Recall1,8256,CUT,100,7735,7952,1,1,,,1
628e5f283594e1a48a04886f,38v4jkc8od,"Mediated Recall_Prolific",1,106,2023-02-05T22:44:56+00:00,5.5758349895477,4,versionB_stim.csv,JOLVersion.csv,JOL,JOL2,LEAGUE,BASEBALL,Study2,F,29,21,Test,User,-,,Recall,Recall1,5192,BASEBALL,100,2534,3381,1,1,,,1
628e5f283594e1a48a04886f,38v4jkc8od,"Mediated Recall_Prolific",1,107,2023-02-05T22:45:02+00:00,6.1336100101471,4,versionB_stim.csv,JOLVersion.csv,JOL,JOL2,TRAP,CAVE,Study2,M,15,17,Test,User,-,,Recall,Recall1,5433,,0,-1,-1,0,0,,,1
628e5f283594e1a48a04886f,38v4jkc8od,"Mediated Recall_Prolific",1,108,2023-02-05T22:45:05+00:00,3.5105800628662,4,versionB_stim.csv,JOLVersion.csv,JOL,JOL2,SOAP,DRINK,Study2,M,12,32,Test,User,-,,Recall,Recall1,3266,DRINK,100,1814,2867,1,1,,,1
628e5f283594e1a48a04886f,38v4jkc8od,"Mediated Recall_Prolific",1,109,2023-02-05T22:45:19+00:00,13.251037120819,4,versionB_stim.csv,JOLVersion.csv,JOL,JOL2,,,,,,0,Instruct,-,10,"You will now be presented with a new set of word pairs. Please study each pair. Remember that your memory will be tested! When finished, press Enter to move to the next pair.",Initial_Instruct,Instruct4,12861,,,-1,-1,,,,,1
628e5f283594e1a48a04886f,38v4jkc8od,"Mediated Recall_Prolific",1,110,2023-02-05T22:45:30+00:00,11.099622011185,4,versionB_stim.csv,JOLVersion.csv,JOL,JOL2,,,,,,0,Instruct,,10,"You will again be asked to rate your ability to remember these items using a 0 to 100 scale. Remember to use the full range of the scale!",,Instruct10,10719,,,-1,-1,,,,,1
628e5f283594e1a48a04886f,38v4jkc8od,"Mediated Recall_Prolific",1,111,2023-02-05T22:45:32+00:00,1.8975169658661,4,versionB_stim.csv,JOLVersion.csv,JOL,JOL2,,,,,,0,Instruct,User,-,"Press Enter when you are readty to begin",,Instruct11,1668,,,-1,-1,,,,,1
628e5f283594e1a48a04886f,38v4jkc8od,"Mediated Recall_Prolific",1,112,2023-02-05T22:45:39+00:00,7.1815469264984,4,versionB_stim.csv,JOLVersion.csv,JOL,JOL2,CAMP,ADVENTURE,BUFFER4,Buffer,55,53,JOL,User,-,"How likely are you to correctly recall the second item in the pair?|Type your response on a scale from 0-100 and then press Enter.",Study/JOL,BUFFER2,6800,,,3266,3387,,,,80,1
628e5f283594e1a48a04886f,38v4jkc8od,"Mediated Recall_Prolific",1,113,2023-02-05T22:45:43+00:00,4.2522671222687,4,versionB_stim.csv,JOLVersion.csv,JOL,JOL2,TREES,GREEN,BUFFER1,Buffer,56,57,JOL,User,-,"How likely are you to correctly recall the second item in the pair?|Type your response on a scale from 0-100 and then press Enter.",Study/JOL,BUFFER2,4013,,,3274,3547,,,,75,1
628e5f283594e1a48a04886f,38v4jkc8od,"Mediated Recall_Prolific",1,114,2023-02-05T22:45:47+00:00,3.5759258270264,4,versionB_stim.csv,JOLVersion.csv,JOL,JOL2,CARROT,POTATO,BUFFER4,Buffer,51,52,JOL,User,-,"How likely are you to correctly recall the second item in the pair?|Type your response on a scale from 0-100 and then press Enter.",Study/JOL,BUFFER2,3356,,,2676,2969,,,,100,1
628e5f283594e1a48a04886f,38v4jkc8od,"Mediated Recall_Prolific",1,115,2023-02-05T22:45:50+00:00,3.1550810337067,4,versionB_stim.csv,JOLVersion.csv,JOL,JOL2,PITCHER,CATCHER,BUFFER1,Buffer,57,58,JOL,User,-,"How likely are you to correctly recall the second item in the pair?|Type your response on a scale from 0-100 and then press Enter.",Study/JOL,BUFFER2,2929,,,2305,2421,,,,90,1
628e5f283594e1a48a04886f,38v4jkc8od,"Mediated Recall_Prolific",1,116,2023-02-05T22:45:53+00:00,3.1808619499207,4,versionB_stim.csv,JOLVersion.csv,JOL,JOL2,NOODLE,STRING,BUFFER4,Buffer,52,54,JOL,User,-,"How likely are you to correctly recall the second item in the pair?|Type your response on a scale from 0-100 and then press Enter.",Study/JOL,BUFFER2,2939,,,2683,2738,,,,30,1
628e5f283594e1a48a04886f,38v4jkc8od,"Mediated Recall_Prolific",1,117,2023-02-05T22:45:56+00:00,3.1735050678253,4,versionB_stim.csv,JOLVersion.csv,JOL,JOL2,MIRROR,MAROON,Study1,U,91,68,JOL,User,-,"How likely are you to correctly recall the second item in the pair?|Type your response on a scale from 0-100 and then press Enter.",Study/JOL,"Study Phase2",2932,,,2324,2324,,,,5,1
628e5f283594e1a48a04886f,38v4jkc8od,"Mediated Recall_Prolific",1,118,2023-02-05T22:46:01+00:00,4.7251219749451,4,versionB_stim.csv,JOLVersion.csv,JOL,JOL2,TEMPERATURE,MORNING,Study1,U,103,62,JOL,User,-,"How likely are you to correctly recall the second item in the pair?|Type your response on a scale from 0-100 and then press Enter.",Study/JOL,"Study Phase2",4502,,,3681,3891,,,,15,1
628e5f283594e1a48a04886f,38v4jkc8od,"Mediated Recall_Prolific",1,119,2023-02-05T22:46:05+00:00,3.7017459869385,4,versionB_stim.csv,JOLVersion.csv,JOL,JOL2,KEYS,ROD,Study1,U,100,97,JOL,User,-,"How likely are you to correctly recall the second item in the pair?|Type your response on a scale from 0-100 and then press Enter.",Study/JOL,"Study Phase2",3479,,,3131,3131,,,,5,1
628e5f283594e1a48a04886f,38v4jkc8od,"Mediated Recall_Prolific",1,120,2023-02-05T22:46:07+00:00,2.2518780231476,4,versionB_stim.csv,JOLVersion.csv,JOL,JOL2,TUNA,FISH,Study1,F,90,76,JOL,User,-,"How likely are you to correctly recall the second item in the pair?|Type your response on a scale from 0-100 and then press Enter.",Study/JOL,"Study Phase2",2028,,,1666,1736,,,,90,1
628e5f283594e1a48a04886f,38v4jkc8od,"Mediated Recall_Prolific",1,121,2023-02-05T22:46:10+00:00,3.4042720794678,4,versionB_stim.csv,JOLVersion.csv,JOL,JOL2,WORD,SENTENCE,Study1,F,82,81,JOL,User,-,"How likely are you to correctly recall the second item in the pair?|Type your response on a scale from 0-100 and then press Enter.",Study/JOL,"Study Phase2",3181,,,2068,2591,,,,80,1
628e5f283594e1a48a04886f,38v4jkc8od,"Mediated Recall_Prolific",1,122,2023-02-05T22:46:13+00:00,3.0506310462952,4,versionB_stim.csv,JOLVersion.csv,JOL,JOL2,CAKE,HAND,Study1,U,104,86,JOL,User,-,"How likely are you to correctly recall the second item in the pair?|Type your response on a scale from 0-100 and then press Enter.",Study/JOL,"Study Phase2",2825,,,2373,2569,,,,15,1
628e5f283594e1a48a04886f,38v4jkc8od,"Mediated Recall_Prolific",1,123,2023-02-05T22:46:16+00:00,2.4475228786469,4,versionB_stim.csv,JOLVersion.csv,JOL,JOL2,SWAN,BIRD,Study1,F,81,96,JOL,User,-,"How likely are you to correctly recall the second item in the pair?|Type your response on a scale from 0-100 and then press Enter.",Study/JOL,"Study Phase2",2211,,,1620,1947,,,,75,1
628e5f283594e1a48a04886f,38v4jkc8od,"Mediated Recall_Prolific",1,124,2023-02-05T22:46:18+00:00,2.5652461051941,4,versionB_stim.csv,JOLVersion.csv,JOL,JOL2,ORCHID,FLOWER,Study1,F,89,88,JOL,User,-,"How likely are you to correctly recall the second item in the pair?|Type your response on a scale from 0-100 and then press Enter.",Study/JOL,"Study Phase2",2344,,,1974,2037,,,,80,1
628e5f283594e1a48a04886f,38v4jkc8od,"Mediated Recall_Prolific",1,125,2023-02-05T22:46:21+00:00,3.1327219009399,4,versionB_stim.csv,JOLVersion.csv,JOL,JOL2,CREDIT,CARD,Study1,F,88,65,JOL,User,-,"How likely are you to correctly recall the second item in the pair?|Type your response on a scale from 0-100 and then press Enter.",Study/JOL,"Study Phase2",2902,,,1609,2459,,,,95,1
628e5f283594e1a48a04886f,38v4jkc8od,"Mediated Recall_Prolific",1,126,2023-02-05T22:46:25+00:00,3.8516330718994,4,versionB_stim.csv,JOLVersion.csv,JOL,JOL2,BAT,BOUNCE,Study1,M,67,90,JOL,User,-,"How likely are you to correctly recall the second item in the pair?|Type your response on a scale from 0-100 and then press Enter.",Study/JOL,"Study Phase2",3623,,,2769,3376,,,,10,1
628e5f283594e1a48a04886f,38v4jkc8od,"Mediated Recall_Prolific",1,127,2023-02-05T22:46:28+00:00,2.9628689289093,4,versionB_stim.csv,JOLVersion.csv,JOL,JOL2,ROUGH,SILK,Study1,M,65,67,JOL,User,-,"How likely are you to correctly recall the second item in the pair?|Type your response on a scale from 0-100 and then press Enter.",Study/JOL,"Study Phase2",2718,,,2340,2491,,,,12,1
628e5f283594e1a48a04886f,38v4jkc8od,"Mediated Recall_Prolific",1,128,2023-02-05T22:46:33+00:00,4.688784122467,4,versionB_stim.csv,JOLVersion.csv,JOL,JOL2,DAY,DARK,Study1,M,73,74,JOL,User,-,"How likely are you to correctly recall the second item in the pair?|Type your response on a scale from 0-100 and then press Enter.",Study/JOL,"Study Phase2",4471,,,2467,4200,,,,35,1
628e5f283594e1a48a04886f,38v4jkc8od,"Mediated Recall_Prolific",1,129,2023-02-05T22:46:37+00:00,4.1902949810028,4,versionB_stim.csv,JOLVersion.csv,JOL,JOL2,GIVE,STEAK,Study1,U,93,80,JOL,User,-,"How likely are you to correctly recall the second item in the pair?|Type your response on a scale from 0-100 and then press Enter.",Study/JOL,"Study Phase2",3966,,,3299,3383,,,,60,1
628e5f283594e1a48a04886f,38v4jkc8od,"Mediated Recall_Prolific",1,130,2023-02-05T22:46:41+00:00,4.4237248897552,4,versionB_stim.csv,JOLVersion.csv,JOL,JOL2,HARD,COTTON,Study1,M,75,98,JOL,User,-,"How likely are you to correctly recall the second item in the pair?|Type your response on a scale from 0-100 and then press Enter.",Study/JOL,"Study Phase2",4204,,,2844,4041,,,,15,1
628e5f283594e1a48a04886f,38v4jkc8od,"Mediated Recall_Prolific",1,131,2023-02-05T22:46:45+00:00,3.8642559051514,4,versionB_stim.csv,JOLVersion.csv,JOL,JOL2,LION,STRIPES,Study1,M,61,77,JOL,User,-,"How likely are you to correctly recall the second item in the pair?|Type your response on a scale from 0-100 and then press Enter.",Study/JOL,"Study Phase2",3628,,,3359,3406,,,,10,1
628e5f283594e1a48a04886f,38v4jkc8od,"Mediated Recall_Prolific",1,132,2023-02-05T22:46:49+00:00,3.7679171562195,4,versionB_stim.csv,JOLVersion.csv,JOL,JOL2,LITTER,TRASH,Study1,F,76,93,JOL,User,-,"How likely are you to correctly recall the second item in the pair?|Type your response on a scale from 0-100 and then press Enter.",Study/JOL,"Study Phase2",3517,,,2925,3234,,,,75,1
628e5f283594e1a48a04886f,38v4jkc8od,"Mediated Recall_Prolific",1,133,2023-02-05T22:46:52+00:00,3.0576798915863,4,versionB_stim.csv,JOLVersion.csv,JOL,JOL2,MULE,DONKEY,Study1,F,79,71,JOL,User,-,"How likely are you to correctly recall the second item in the pair?|Type your response on a scale from 0-100 and then press Enter.",Study/JOL,"Study Phase2",2832,,,2460,2524,,,,70,1
628e5f283594e1a48a04886f,38v4jkc8od,"Mediated Recall_Prolific",1,134,2023-02-05T22:46:55+00:00,2.4263889789581,4,versionB_stim.csv,JOLVersion.csv,JOL,JOL2,ROOT,PLANT,Study1,F,80,85,JOL,User,-,"How likely are you to correctly recall the second item in the pair?|Type your response on a scale from 0-100 and then press Enter.",Study/JOL,"Study Phase2",2203,,,1797,1855,,,,70,1
628e5f283594e1a48a04886f,38v4jkc8od,"Mediated Recall_Prolific",1,135,2023-02-05T22:46:57+00:00,2.5737361907959,4,versionB_stim.csv,JOLVersion.csv,JOL,JOL2,CRY,BOTTLE,Study1,M,71,103,JOL,User,-,"How likely are you to correctly recall the second item in the pair?|Type your response on a scale from 0-100 and then press Enter.",Study/JOL,"Study Phase2",2338,,,2004,2074,,,,30,1
628e5f283594e1a48a04886f,38v4jkc8od,"Mediated Recall_Prolific",1,136,2023-02-05T22:47:01+00:00,3.704066991806,4,versionB_stim.csv,JOLVersion.csv,JOL,JOL2,CIRCLE,DANCE,Study1,M,68,106,JOL,User,-,"How likely are you to correctly recall the second item in the pair?|Type your response on a scale from 0-100 and then press Enter.",Study/JOL,"Study Phase2",3483,,,3133,3182,,,,50,1
628e5f283594e1a48a04886f,38v4jkc8od,"Mediated Recall_Prolific",1,137,2023-02-05T22:47:05+00:00,4.1542098522186,4,versionB_stim.csv,JOLVersion.csv,JOL,JOL2,HORSE,WHEEL,Study1,M,69,69,JOL,User,-,"How likely are you to correctly recall the second item in the pair?|Type your response on a scale from 0-100 and then press Enter.",Study/JOL,"Study Phase2",3910,,,3466,3635,,,,35,1
628e5f283594e1a48a04886f,38v4jkc8od,"Mediated Recall_Prolific",1,138,2023-02-05T22:47:09+00:00,3.7841091156006,4,versionB_stim.csv,JOLVersion.csv,JOL,JOL2,BIRTHDAY,PIE,Study1,M,64,83,JOL,User,-,"How likely are you to correctly recall the second item in the pair?|Type your response on a scale from 0-100 and then press Enter.",Study/JOL,"Study Phase2",3548,,,3138,3359,,,,30,1
628e5f283594e1a48a04886f,38v4jkc8od,"Mediated Recall_Prolific",1,139,2023-02-05T22:47:13+00:00,4.3176980018616,4,versionB_stim.csv,JOLVersion.csv,JOL,JOL2,WEDDING,FINGER,Study1,M,72,92,JOL,User,-,"How likely are you to correctly recall the second item in the pair?|Type your response on a scale from 0-100 and then press Enter.",Study/JOL,"Study Phase2",4088,,,2607,3933,,,,50,1
628e5f283594e1a48a04886f,38v4jkc8od,"Mediated Recall_Prolific",1,140,2023-02-05T22:47:17+00:00,3.7581498622894,4,versionB_stim.csv,JOLVersion.csv,JOL,JOL2,SOON,BELT,Study1,U,101,78,JOL,User,-,"How likely are you to correctly recall the second item in the pair?|Type your response on a scale from 0-100 and then press Enter.",Study/JOL,"Study Phase2",3539,,,3189,3236,,,,10,1
628e5f283594e1a48a04886f,38v4jkc8od,"Mediated Recall_Prolific",1,141,2023-02-05T22:47:20+00:00,3.1625180244446,4,versionB_stim.csv,JOLVersion.csv,JOL,JOL2,TREE,SYRUP,Study1,M,66,91,JOL,User,-,"How likely are you to correctly recall the second item in the pair?|Type your response on a scale from 0-100 and then press Enter.",Study/JOL,"Study Phase2",2940,,,2606,2670,,,,60,1
628e5f283594e1a48a04886f,38v4jkc8od,"Mediated Recall_Prolific",1,142,2023-02-05T22:47:23+00:00,3.3891429901123,4,versionB_stim.csv,JOLVersion.csv,JOL,JOL2,SCALP,HEAD,Study1,F,78,101,JOL,User,-,"How likely are you to correctly recall the second item in the pair?|Type your response on a scale from 0-100 and then press Enter.",Study/JOL,"Study Phase2",3153,,,2820,2898,,,,70,1
628e5f283594e1a48a04886f,38v4jkc8od,"Mediated Recall_Prolific",1,143,2023-02-05T22:47:27+00:00,3.5487871170044,4,versionB_stim.csv,JOLVersion.csv,JOL,JOL2,HYGIENE,CLEAN,Study1,F,83,64,JOL,User,-,"How likely are you to correctly recall the second item in the pair?|Type your response on a scale from 0-100 and then press Enter.",Study/JOL,"Study Phase2",3320,,,2977,3139,,,,65,1
628e5f283594e1a48a04886f,38v4jkc8od,"Mediated Recall_Prolific",1,144,2023-02-05T22:47:31+00:00,3.649924993515,4,versionB_stim.csv,JOLVersion.csv,JOL,JOL2,WAR,QUIET,Study1,M,63,75,JOL,User,-,"How likely are you to correctly recall the second item in the pair?|Type your response on a scale from 0-100 and then press Enter.",Study/JOL,"Study Phase2",3434,,,3135,3135,,,,5,1
628e5f283594e1a48a04886f,38v4jkc8od,"Mediated Recall_Prolific",1,145,2023-02-05T22:47:34+00:00,3.6455709934235,4,versionB_stim.csv,JOLVersion.csv,JOL,JOL2,STRETCH,CLOTH,Study1,U,92,99,JOL,User,-,"How likely are you to correctly recall the second item in the pair?|Type your response on a scale from 0-100 and then press Enter.",Study/JOL,"Study Phase2",3420,,,3087,3087,,,,5,1
628e5f283594e1a48a04886f,38v4jkc8od,"Mediated Recall_Prolific",1,146,2023-02-05T22:47:38+00:00,3.4122469425201,4,versionB_stim.csv,JOLVersion.csv,JOL,JOL2,LISTEN,FICTION,Study1,U,99,70,JOL,User,-,"How likely are you to correctly recall the second item in the pair?|Type your response on a scale from 0-100 and then press Enter.",Study/JOL,"Study Phase2",3181,,,2667,2965,,,,20,1
628e5f283594e1a48a04886f,38v4jkc8od,"Mediated Recall_Prolific",1,147,2023-02-05T22:47:41+00:00,3.3825240135193,4,versionB_stim.csv,JOLVersion.csv,JOL,JOL2,WAGE,MONEY,Study1,F,77,87,JOL,User,-,"How likely are you to correctly recall the second item in the pair?|Type your response on a scale from 0-100 and then press Enter.",Study/JOL,"Study Phase2",3147,,,2569,2882,,,,56,1
628e5f283594e1a48a04886f,38v4jkc8od,"Mediated Recall_Prolific",1,148,2023-02-05T22:47:45+00:00,4.3894309997559,4,versionB_stim.csv,JOLVersion.csv,JOL,JOL2,BEACH,BOX,Study1,M,62,84,JOL,User,-,"How likely are you to correctly recall the second item in the pair?|Type your response on a scale from 0-100 and then press Enter.",Study/JOL,"Study Phase2",4162,,,3602,4001,,,,15,1
628e5f283594e1a48a04886f,38v4jkc8od,"Mediated Recall_Prolific",1,149,2023-02-05T22:47:49+00:00,3.2616009712219,4,versionB_stim.csv,JOLVersion.csv,JOL,JOL2,TOOTH,HAIR,Study1,M,74,102,JOL,User,-,"How likely are you to correctly recall the second item in the pair?|Type your response on a scale from 0-100 and then press Enter.",Study/JOL,"Study Phase2",3037,,,2547,2897,,,,15,1
628e5f283594e1a48a04886f,38v4jkc8od,"Mediated Recall_Prolific",1,150,2023-02-05T22:47:53+00:00,3.7760241031647,4,versionB_stim.csv,JOLVersion.csv,JOL,JOL2,SIP,DRINK,Study1,F,87,89,JOL,User,-,"How likely are you to correctly recall the second item in the pair?|Type your response on a scale from 0-100 and then press Enter.",Study/JOL,"Study Phase2",3554,,,1842,2017,,,,70,1
628e5f283594e1a48a04886f,38v4jkc8od,"Mediated Recall_Prolific",1,151,2023-02-05T22:47:56+00:00,3.6301498413086,4,versionB_stim.csv,JOLVersion.csv,JOL,JOL2,FUZZY,BANG,Study1,U,105,105,JOL,User,-,"How likely are you to correctly recall the second item in the pair?|Type your response on a scale from 0-100 and then press Enter.",Study/JOL,"Study Phase2",3391,,,3203,3203,,,,5,1
628e5f283594e1a48a04886f,38v4jkc8od,"Mediated Recall_Prolific",1,152,2023-02-05T22:47:59+00:00,2.7956969738007,4,versionB_stim.csv,JOLVersion.csv,JOL,JOL2,NAP,SLEEP,Study1,F,84,82,JOL,User,-,"How likely are you to correctly recall the second item in the pair?|Type your response on a scale from 0-100 and then press Enter.",Study/JOL,"Study Phase2",2571,,,1738,2300,,,,75,1
628e5f283594e1a48a04886f,38v4jkc8od,"Mediated Recall_Prolific",1,153,2023-02-05T22:48:04+00:00,4.9406871795654,4,versionB_stim.csv,JOLVersion.csv,JOL,JOL2,SIGN,TICK,Study1,U,102,100,JOL,User,-,"How likely are you to correctly recall the second item in the pair?|Type your response on a scale from 0-100 and then press Enter.",Study/JOL,"Study Phase2",4715,,,3746,4609,,,,2,1
628e5f283594e1a48a04886f,38v4jkc8od,"Mediated Recall_Prolific",1,154,2023-02-05T22:48:08+00:00,3.9995439052582,4,versionB_stim.csv,JOLVersion.csv,JOL,JOL2,MAZE,PHONE,Study1,U,97,95,JOL,User,-,"How likely are you to correctly recall the second item in the pair?|Type your response on a scale from 0-100 and then press Enter.",Study/JOL,"Study Phase2",3779,,,2534,3550,,,,10,1
628e5f283594e1a48a04886f,38v4jkc8od,"Mediated Recall_Prolific",1,155,2023-02-05T22:48:12+00:00,3.7724049091339,4,versionB_stim.csv,JOLVersion.csv,JOL,JOL2,AFFECTION,LOVE,Study1,F,86,66,JOL,User,-,"How likely are you to correctly recall the second item in the pair?|Type your response on a scale from 0-100 and then press Enter.",Study/JOL,"Study Phase2",3534,,,2397,3037,,,,58,1
628e5f283594e1a48a04886f,38v4jkc8od,"Mediated Recall_Prolific",1,156,2023-02-05T22:48:16+00:00,4.5925102233887,4,versionB_stim.csv,JOLVersion.csv,JOL,JOL2,CRACKLE,ELECTION,Study1,U,94,72,JOL,User,-,"How likely are you to correctly recall the second item in the pair?|Type your response on a scale from 0-100 and then press Enter.",Study/JOL,"Study Phase2",4323,,,4105,4105,,,,3,1
628e5f283594e1a48a04886f,38v4jkc8od,"Mediated Recall_Prolific",1,157,2023-02-05T22:48:21+00:00,4.3593199253082,4,versionB_stim.csv,JOLVersion.csv,JOL,JOL2,VEHICLE,CHARM,Study1,U,95,73,JOL,User,-,"How likely are you to correctly recall the second item in the pair?|Type your response on a scale from 0-100 and then press Enter.",Study/JOL,"Study Phase2",4129,,,3650,3920,,,,13,1
628e5f283594e1a48a04886f,38v4jkc8od,"Mediated Recall_Prolific",1,158,2023-02-05T22:48:24+00:00,2.9600300788879,4,versionB_stim.csv,JOLVersion.csv,JOL,JOL2,CEILING,CARPET,Study1,M,70,94,JOL,User,-,"How likely are you to correctly recall the second item in the pair?|Type your response on a scale from 0-100 and then press Enter.",Study/JOL,"Study Phase2",2727,,,2095,2508,,,,75,1
628e5f283594e1a48a04886f,38v4jkc8od,"Mediated Recall_Prolific",1,159,2023-02-05T22:48:26+00:00,2.7416977882385,4,versionB_stim.csv,JOLVersion.csv,JOL,JOL2,SHELL,SHAKE,Study1,U,98,63,JOL,User,-,"How likely are you to correctly recall the second item in the pair?|Type your response on a scale from 0-100 and then press Enter.",Study/JOL,"Study Phase2",2516,,,2082,2165,,,,20,1
628e5f283594e1a48a04886f,38v4jkc8od,"Mediated Recall_Prolific",1,160,2023-02-05T22:48:29+00:00,2.5150129795074,4,versionB_stim.csv,JOLVersion.csv,JOL,JOL2,MEAT,KEYS,Study1,U,96,104,JOL,User,-,"How likely are you to correctly recall the second item in the pair?|Type your response on a scale from 0-100 and then press Enter.",Study/JOL,"Study Phase2",2290,,,1868,2141,,,,15,1
628e5f283594e1a48a04886f,38v4jkc8od,"Mediated Recall_Prolific",1,161,2023-02-05T22:48:32+00:00,3.6751210689545,4,versionB_stim.csv,JOLVersion.csv,JOL,JOL2,MULE,DONKEY,Study1,F,85,79,JOL,User,-,"How likely are you to correctly recall the second item in the pair?|Type your response on a scale from 0-100 and then press Enter.",Study/JOL,"Study Phase2",3440,,,2773,2867,,,,90,1
628e5f283594e1a48a04886f,38v4jkc8od,"Mediated Recall_Prolific",1,162,2023-02-05T22:48:36+00:00,3.1241500377655,4,versionB_stim.csv,JOLVersion.csv,JOL,JOL2,ICE,FROZEN,BUFFER4,Buffer,54,56,JOL,User,-,"How likely are you to correctly recall the second item in the pair?|Type your response on a scale from 0-100 and then press Enter.",Study/JOL,BUFFER2,2890,,,1903,2241,,,,85,1
628e5f283594e1a48a04886f,38v4jkc8od,"Mediated Recall_Prolific",1,163,2023-02-05T22:48:42+00:00,6.5204429626465,4,versionB_stim.csv,JOLVersion.csv,JOL,JOL2,GEESE,GOOSE,BUFFER2,Buffer,106,111,JOL,User,-,"How likely are you to correctly recall the second item in the pair?|Type your response on a scale from 0-100 and then press Enter.",Study/JOL,BUFFER2,5350,,,3057,4961,,,,98,1
628e5f283594e1a48a04886f,38v4jkc8od,"Mediated Recall_Prolific",1,164,2023-02-05T22:48:45+00:00,2.9742751121521,4,versionB_stim.csv,JOLVersion.csv,JOL,JOL2,SHRIMP,FISH,BUFFER4,Buffer,53,55,JOL,User,-,"How likely are you to correctly recall the second item in the pair?|Type your response on a scale from 0-100 and then press Enter.",Study/JOL,BUFFER2,2750,,,2173,2487,,,,67,1
628e5f283594e1a48a04886f,38v4jkc8od,"Mediated Recall_Prolific",1,165,2023-02-05T22:48:51+00:00,6.1548960208893,4,versionB_stim.csv,JOLVersion.csv,JOL,JOL2,SPACE,JAM,BUFFER1,Buffer,60,60,JOL,User,-,"How likely are you to correctly recall the second item in the pair?|Type your response on a scale from 0-100 and then press Enter.",Study/JOL,BUFFER2,5579,,,5074,5296,,,,98,1
628e5f283594e1a48a04886f,38v4jkc8od,"Mediated Recall_Prolific",1,166,2023-02-05T22:48:57+00:00,5.7954289913177,4,versionB_stim.csv,JOLVersion.csv,JOL,JOL2,SHERRIF,POLICE,BUFFER2,Buffer,107,109,JOL,User,-,"How likely are you to correctly recall the second item in the pair?|Type your response on a scale from 0-100 and then press Enter.",Study/JOL,BUFFER2,5536,,,4900,5183,,,,85,1
628e5f283594e1a48a04886f,38v4jkc8od,"Mediated Recall_Prolific",1,167,2023-02-05T22:48:59+00:00,1.9752979278564,4,versionB_stim.csv,JOLVersion.csv,JOL,JOL2,,,,,,0,Instruct,User,-,"You have completed this section. Please press Enter.",Filler_Instruction,Instruct2,1747,,,-1,-1,,,,,1
628e5f283594e1a48a04886f,38v4jkc8od,"Mediated Recall_Prolific",1,168,2023-02-05T22:51:00+00:00,120.47827506065,4,versionB_stim.csv,JOLVersion.csv,JOL,JOL2,,,,,,0,FreeRecall,120,120,"Please list the 50 US states in alphabetical order. The task will automatically advance to the next screen after two minutes.",,Filler1,120001,"Alabama, Alaska, Arizona, Arkansas, California, Colorado, Delaware, Florida, Georgia, Idaho, Iowa, Illinois, Louisiana, Maine, Minnesota, New H New York, ",0,6278,119946,0,0,,,1
628e5f283594e1a48a04886f,38v4jkc8od,"Mediated Recall_Prolific",1,169,2023-02-05T22:51:11+00:00,11.043225049973,4,versionB_stim.csv,JOLVersion.csv,JOL,JOL2,,,,,,0,Instruct,-,10,"You will now be presented with the first word from each of the previously studied item pairs. Please type the missing word. If you do not know the word, you may guess or press Enter to skip forward to the next pair.",,Instruct3,10637,,,-1,-1,,,,,1
628e5f283594e1a48a04886f,38v4jkc8od,"Mediated Recall_Prolific",1,170,2023-02-05T22:51:19+00:00,8.0425269603729,4,versionB_stim.csv,JOLVersion.csv,JOL,JOL2,VEHICLE,CHARM,Study1,U,95,73,Test,User,-,,Recall,Recall2,7649,HAPPY,40,6498,6919,0,0,,,1
628e5f283594e1a48a04886f,38v4jkc8od,"Mediated Recall_Prolific",1,171,2023-02-05T22:51:22+00:00,3.3841879367828,4,versionB_stim.csv,JOLVersion.csv,JOL,JOL2,CEILING,CARPET,Study1,M,70,94,Test,User,-,,Recall,Recall2,3152,CARPET,100,1974,2414,1,1,,,1
628e5f283594e1a48a04886f,38v4jkc8od,"Mediated Recall_Prolific",1,172,2023-02-05T22:51:28+00:00,6.4563939571381,4,versionB_stim.csv,JOLVersion.csv,JOL,JOL2,MEAT,KEYS,Study1,U,96,104,Test,User,-,,Recall,Recall2,6087,TENDER,20,5118,5798,0,0,,,1
628e5f283594e1a48a04886f,38v4jkc8od,"Mediated Recall_Prolific",1,173,2023-02-05T22:51:35+00:00,6.5429420471191,4,versionB_stim.csv,JOLVersion.csv,JOL,JOL2,TREE,SYRUP,Study1,M,66,91,Test,User,-,,Recall,Recall2,6150,SAP,50,1322,1497,0,0,,,1
628e5f283594e1a48a04886f,38v4jkc8od,"Mediated Recall_Prolific",1,174,2023-02-05T22:51:41+00:00,5.538379907608,4,versionB_stim.csv,JOLVersion.csv,JOL,JOL2,GIVE,STEAK,Study1,U,93,80,Test,User,-,,Recall,Recall2,5137,KEYS,22.222222222222,3842,4890,0,0,,,1
628e5f283594e1a48a04886f,38v4jkc8od,"Mediated Recall_Prolific",1,175,2023-02-05T22:51:49+00:00,8.053838968277,4,versionB_stim.csv,JOLVersion.csv,JOL,JOL2,SIP,DRINK,Study1,F,87,89,Test,User,-,,Recall,Recall2,7663,DRINK,100,6872,7321,1,1,,,1
628e5f283594e1a48a04886f,38v4jkc8od,"Mediated Recall_Prolific",1,176,2023-02-05T22:51:53+00:00,3.9491322040558,4,versionB_stim.csv,JOLVersion.csv,JOL,JOL2,HYGIENE,CLEAN,Study1,F,83,64,Test,User,-,,Recall,Recall2,3726,CLEAN,100,1401,2724,1,1,,,1
628e5f283594e1a48a04886f,38v4jkc8od,"Mediated Recall_Prolific",1,177,2023-02-05T22:51:56+00:00,3.2706298828125,4,versionB_stim.csv,JOLVersion.csv,JOL,JOL2,LION,STRIPES,Study1,M,61,77,Test,User,-,,Recall,Recall2,3046,STRIPES,100,2279,2797,1,1,,,1
628e5f283594e1a48a04886f,38v4jkc8od,"Mediated Recall_Prolific",1,178,2023-02-05T22:51:59+00:00,3.6318409442902,4,versionB_stim.csv,JOLVersion.csv,JOL,JOL2,ROOT,PLANT,Study1,F,80,85,Test,User,-,,Recall,Recall2,3408,PLANT,100,2404,2824,1,1,,,1
628e5f283594e1a48a04886f,38v4jkc8od,"Mediated Recall_Prolific",1,179,2023-02-05T22:52:02+00:00,2.1643261909485,4,versionB_stim.csv,JOLVersion.csv,JOL,JOL2,MULE,DONKEY,Study1,F,85,79,Test,User,-,,Recall,Recall2,1925,DONKEY,100,1042,1610,1,1,,,1
628e5f283594e1a48a04886f,38v4jkc8od,"Mediated Recall_Prolific",1,180,2023-02-05T22:52:04+00:00,2.4050619602203,4,versionB_stim.csv,JOLVersion.csv,JOL,JOL2,MAZE,PHONE,Study1,U,97,95,Test,User,-,,Recall,Recall2,2164,PHONE,100,1486,1884,1,1,,,1
628e5f283594e1a48a04886f,38v4jkc8od,"Mediated Recall_Prolific",1,181,2023-02-05T22:52:11+00:00,6.6960508823395,4,versionB_stim.csv,JOLVersion.csv,JOL,JOL2,FUZZY,BANG,Study1,U,105,105,Test,User,-,,Recall,Recall2,6313,ROCK,0,5484,5919,0,0,,,1
628e5f283594e1a48a04886f,38v4jkc8od,"Mediated Recall_Prolific",1,182,2023-02-05T22:52:18+00:00,7.7300879955292,4,versionB_stim.csv,JOLVersion.csv,JOL,JOL2,CAKE,HAND,Study1,U,104,86,Test,User,-,,Recall,Recall2,7353,GIVE,0,5876,6822,0,0,,,1
628e5f283594e1a48a04886f,38v4jkc8od,"Mediated Recall_Prolific",1,183,2023-02-05T22:52:27+00:00,8.933963060379,4,versionB_stim.csv,JOLVersion.csv,JOL,JOL2,DAY,DARK,Study1,M,73,74,Test,User,-,,Recall,Recall2,8543,DARK,100,4748,7792,1,1,,,1
628e5f283594e1a48a04886f,38v4jkc8od,"Mediated Recall_Prolific",1,184,2023-02-05T22:52:31+00:00,3.2388560771942,4,versionB_stim.csv,JOLVersion.csv,JOL,JOL2,WORD,SENTENCE,Study1,F,82,81,Test,User,-,,Recall,Recall2,2982,SENTENCE,100,1636,2698,1,1,,,1
628e5f283594e1a48a04886f,38v4jkc8od,"Mediated Recall_Prolific",1,185,2023-02-05T22:52:33+00:00,2.2616398334503,4,versionB_stim.csv,JOLVersion.csv,JOL,JOL2,BIRTHDAY,PIE,Study1,M,64,83,Test,User,-,,Recall,Recall2,1982,PIE,100,1402,1579,1,1,,,1
628e5f283594e1a48a04886f,38v4jkc8od,"Mediated Recall_Prolific",1,186,2023-02-05T22:52:37+00:00,3.7223780155182,4,versionB_stim.csv,JOLVersion.csv,JOL,JOL2,WEDDING,FINGER,Study1,M,72,92,Test,User,-,,Recall,Recall2,3493,FINGER,100,1844,3021,1,1,,,1
628e5f283594e1a48a04886f,38v4jkc8od,"Mediated Recall_Prolific",1,187,2023-02-05T22:52:42+00:00,5.3699631690979,4,versionB_stim.csv,JOLVersion.csv,JOL,JOL2,HARD,COTTON,Study1,M,75,98,Test,User,-,,Recall,Recall2,4986,RAZOR,18.181818181818,3499,4752,0,0,,,1
628e5f283594e1a48a04886f,38v4jkc8od,"Mediated Recall_Prolific",1,188,2023-02-05T22:52:47+00:00,5.0903658866882,4,versionB_stim.csv,JOLVersion.csv,JOL,JOL2,WAGE,MONEY,Study1,F,77,87,Test,User,-,,Recall,Recall2,4866,BANK,22.222222222222,4353,4607,0,0,,,1
628e5f283594e1a48a04886f,38v4jkc8od,"Mediated Recall_Prolific",1,189,2023-02-05T22:52:50+00:00,3.3355779647827,4,versionB_stim.csv,JOLVersion.csv,JOL,JOL2,MIRROR,MAROON,Study1,U,91,68,Test,User,-,,Recall,Recall2,3107,CHILDREN,28.571428571429,1426,2498,0,0,,,1
628e5f283594e1a48a04886f,38v4jkc8od,"Mediated Recall_Prolific",1,190,2023-02-05T22:52:53+00:00,2.7159659862518,4,versionB_stim.csv,JOLVersion.csv,JOL,JOL2,WAR,QUIET,Study1,M,63,75,Test,User,-,,Recall,Recall2,2487,QUIET,100,1678,2100,1,1,,,1
628e5f283594e1a48a04886f,38v4jkc8od,"Mediated Recall_Prolific",1,191,2023-02-05T22:52:57+00:00,3.8573839664459,4,versionB_stim.csv,JOLVersion.csv,JOL,JOL2,TOOTH,HAIR,Study1,M,74,102,Test,User,-,,Recall,Recall2,3635,HAIR,100,2966,3272,1,1,,,1
628e5f283594e1a48a04886f,38v4jkc8od,"Mediated Recall_Prolific",1,192,2023-02-05T22:52:59+00:00,2.3546500205994,4,versionB_stim.csv,JOLVersion.csv,JOL,JOL2,SHELL,SHAKE,Study1,U,98,63,Test,User,-,,Recall,Recall2,2124,SHAKE,100,1554,1926,1,1,,,1
628e5f283594e1a48a04886f,38v4jkc8od,"Mediated Recall_Prolific",1,193,2023-02-05T22:53:02+00:00,3.123841047287,4,versionB_stim.csv,JOLVersion.csv,JOL,JOL2,BAT,BOUNCE,Study1,M,67,90,Test,User,-,,Recall,Recall2,2892,BOUNCY,83.333333333333,1167,1744,0,1,,,1
628e5f283594e1a48a04886f,38v4jkc8od,"Mediated Recall_Prolific",1,194,2023-02-05T22:53:13+00:00,10.098206043243,4,versionB_stim.csv,JOLVersion.csv,JOL,JOL2,SWAN,BIRD,Study1,F,81,96,Test,User,-,,Recall,Recall2,9671,BIRD,100,7932,8263,1,1,,,1
628e5f283594e1a48a04886f,38v4jkc8od,"Mediated Recall_Prolific",1,195,2023-02-05T22:53:16+00:00,2.9980518817902,4,versionB_stim.csv,JOLVersion.csv,JOL,JOL2,CIRCLE,DANCE,Study1,M,68,106,Test,User,-,,Recall,Recall2,2769,DANCE,100,1798,2473,1,1,,,1
628e5f283594e1a48a04886f,38v4jkc8od,"Mediated Recall_Prolific",1,196,2023-02-05T22:53:21+00:00,5.9011890888214,4,versionB_stim.csv,JOLVersion.csv,JOL,JOL2,SOON,BELT,Study1,U,101,78,Test,User,-,,Recall,Recall2,5515,,0,-1,-1,0,0,,,1
628e5f283594e1a48a04886f,38v4jkc8od,"Mediated Recall_Prolific",1,197,2023-02-05T22:53:28+00:00,6.225035905838,4,versionB_stim.csv,JOLVersion.csv,JOL,JOL2,CRY,BOTTLE,Study1,M,71,103,Test,User,-,,Recall,Recall2,5836,BOTTLE,100,4572,5169,1,1,,,1
628e5f283594e1a48a04886f,38v4jkc8od,"Mediated Recall_Prolific",1,198,2023-02-05T22:53:30+00:00,2.8176581859589,4,versionB_stim.csv,JOLVersion.csv,JOL,JOL2,TUNA,FISH,Study1,F,90,76,Test,User,-,,Recall,Recall2,2570,FISH,100,1149,1429,1,1,,,1
628e5f283594e1a48a04886f,38v4jkc8od,"Mediated Recall_Prolific",1,199,2023-02-05T22:53:41+00:00,10.960258960724,4,versionB_stim.csv,JOLVersion.csv,JOL,JOL2,LISTEN,FICTION,Study1,U,99,70,Test,User,-,,Recall,Recall2,10570,FICTION,100,7174,9735,1,1,,,1
628e5f283594e1a48a04886f,38v4jkc8od,"Mediated Recall_Prolific",1,200,2023-02-05T22:53:56+00:00,15.029258012772,4,versionB_stim.csv,JOLVersion.csv,JOL,JOL2,TEMPERATURE,MORNING,Study1,U,103,62,Test,User,-,,Recall,Recall2,14652,POLITICS,26.666666666667,13026,14359,0,0,,,1
628e5f283594e1a48a04886f,38v4jkc8od,"Mediated Recall_Prolific",1,201,2023-02-05T22:54:07+00:00,10.822846889496,4,versionB_stim.csv,JOLVersion.csv,JOL,JOL2,HORSE,WHEEL,Study1,M,69,69,Test,User,-,,Recall,Recall2,10427,,0,-1,-1,0,0,,,1
628e5f283594e1a48a04886f,38v4jkc8od,"Mediated Recall_Prolific",1,202,2023-02-05T22:54:15+00:00,8.164155960083,4,versionB_stim.csv,JOLVersion.csv,JOL,JOL2,ROUGH,SILK,Study1,M,65,67,Test,User,-,,Recall,Recall2,7766,,0,-1,-1,0,0,,,1
628e5f283594e1a48a04886f,38v4jkc8od,"Mediated Recall_Prolific",1,203,2023-02-05T22:54:18+00:00,2.084132194519,4,versionB_stim.csv,JOLVersion.csv,JOL,JOL2,NAP,SLEEP,Study1,F,84,82,Test,User,-,,Recall,Recall2,1857,SLEEP,100,1158,1593,1,1,,,1
628e5f283594e1a48a04886f,38v4jkc8od,"Mediated Recall_Prolific",1,204,2023-02-05T22:54:25+00:00,7.6676149368286,4,versionB_stim.csv,JOLVersion.csv,JOL,JOL2,BEACH,BOX,Study1,M,62,84,Test,User,-,,Recall,Recall2,7277,,0,-1,-1,0,0,,,1
628e5f283594e1a48a04886f,38v4jkc8od,"Mediated Recall_Prolific",1,205,2023-02-05T22:54:29+00:00,3.3998310565948,4,versionB_stim.csv,JOLVersion.csv,JOL,JOL2,CREDIT,CARD,Study1,F,88,65,Test,User,-,,Recall,Recall2,3168,CARD,100,1893,2384,1,1,,,1
628e5f283594e1a48a04886f,38v4jkc8od,"Mediated Recall_Prolific",1,206,2023-02-05T22:54:33+00:00,4.7240447998047,4,versionB_stim.csv,JOLVersion.csv,JOL,JOL2,STRETCH,CLOTH,Study1,U,92,99,Test,User,-,,Recall,Recall2,4503,FABRIC,18.181818181818,2292,3470,0,0,,,1
628e5f283594e1a48a04886f,38v4jkc8od,"Mediated Recall_Prolific",1,207,2023-02-05T22:54:37+00:00,3.7814600467682,4,versionB_stim.csv,JOLVersion.csv,JOL,JOL2,AFFECTION,LOVE,Study1,F,86,66,Test,User,-,,Recall,Recall2,3483,LOVE,100,2841,3202,1,1,,,1
628e5f283594e1a48a04886f,38v4jkc8od,"Mediated Recall_Prolific",1,208,2023-02-05T22:54:39+00:00,2.1144609451294,4,versionB_stim.csv,JOLVersion.csv,JOL,JOL2,SCALP,HEAD,Study1,F,78,101,Test,User,-,,Recall,Recall2,1819,HEAD,100,1188,1505,1,1,,,1
628e5f283594e1a48a04886f,38v4jkc8od,"Mediated Recall_Prolific",1,209,2023-02-05T22:54:42+00:00,3.1694691181183,4,versionB_stim.csv,JOLVersion.csv,JOL,JOL2,LITTER,TRASH,Study1,F,76,93,Test,User,-,,Recall,Recall2,2930,TRASH,100,1327,1716,1,1,,,1
628e5f283594e1a48a04886f,38v4jkc8od,"Mediated Recall_Prolific",1,210,2023-02-05T22:54:53+00:00,10.698741912842,4,versionB_stim.csv,JOLVersion.csv,JOL,JOL2,CRACKLE,ELECTION,Study1,U,94,72,Test,User,-,,Recall,Recall2,10320,VOTING,42.857142857143,4937,5368,0,0,,,1
628e5f283594e1a48a04886f,38v4jkc8od,"Mediated Recall_Prolific",1,211,2023-02-05T22:54:56+00:00,2.6742141246796,4,versionB_stim.csv,JOLVersion.csv,JOL,JOL2,ORCHID,FLOWER,Study1,F,89,88,Test,User,-,,Recall,Recall2,2445,FLOWER,100,1238,1723,1,1,,,1
628e5f283594e1a48a04886f,38v4jkc8od,"Mediated Recall_Prolific",1,212,2023-02-05T22:55:04+00:00,7.9940638542175,4,versionB_stim.csv,JOLVersion.csv,JOL,JOL2,SIGN,TICK,Study1,U,102,100,Test,User,-,,Recall,Recall2,7619,,0,-1,-1,0,0,,,1
628e5f283594e1a48a04886f,38v4jkc8od,"Mediated Recall_Prolific",1,213,2023-02-05T22:55:12+00:00,7.8064651489258,4,versionB_stim.csv,JOLVersion.csv,JOL,JOL2,KEYS,ROD,Study1,U,100,97,Test,User,-,,Recall,Recall2,7406,HAND,28.571428571429,6777,7106,0,0,,,1
628e5f283594e1a48a04886f,38v4jkc8od,"Mediated Recall_Prolific",1,214,2023-02-05T22:55:14+00:00,2.1775579452515,4,versionB_stim.csv,JOLVersion.csv,JOL,JOL2,MULE,DONKEY,Study1,F,79,71,Test,User,-,,Recall,Recall2,1931,DONKEY,100,1085,1581,1,1,,,1
628e5f283594e1a48a04886f,38v4jkc8od,"Mediated Recall_Prolific",1,215,2023-02-05T22:55:15+00:00,1.2210340499878,4,versionB_stim.csv,JOLVersion.csv,JOL,JOL2,,,,,,0,Instruct,User,-,"You have completed this section. Please press Enter.",,Instruct7,994,,,-1,-1,,,,,1
628e5f283594e1a48a04886f,38v4jkc8od,"Mediated Recall_Prolific",1,216,2023-02-05T22:55:19+00:00,3.7825238704681,4,versionB_stim.csv,JOLVersion.csv,JOL,JOL2,,,,,,0,Instruct,User,-,"The following screen will ask you a few questions abour your experience today. You must complete these questions to receive credit.",,Instruct8,3555,,,-1,-1,,,,,1
