Username,ID,ExperimentName,Session,Trial,Date,TimeDif,"Condition Number","Stimuli File","Order File","Condition Description","Condition Notes",Stimuli*Cue,Stimuli*Answer,Stimuli*Shuffle,"Stimuli*Stimuli Notes",Stimuli*Value,Procedure*Item,"Procedure*Trial Type","Procedure*Max Time","Procedure*Min Time",Procedure*Text,"Procedure*Procedure Notes",Procedure*Shuffle,Response*RT,Response*Response,Response*Accuracy,Response*RTfirst,Response*RTlast,Response*strictAcc,Response*lenientAcc,Response*focus,Response*JOL,Response*Focus
5d59b01348766d0016949e6a,0bwidlu9nb,"Mediated Recall_Prolific",1,1,2023-02-23T22:22:13+00:00,155.10551309586,4,versionB_stim.csv,JOLVersion.csv,JOL,JOL2,,,,,,0,Instruct,-,5,"In this section, you will be presented with a series of word pairs. Please study each word pair! Your memory will be tested!",Initial_Instruct,Instruct1,154824,,,-1,-1,,,,,0.024
5d59b01348766d0016949e6a,0bwidlu9nb,"Mediated Recall_Prolific",1,2,2023-02-23T22:22:30+00:00,16.474057912827,4,versionB_stim.csv,JOLVersion.csv,JOL,JOL2,,,,,,0,Instruct,-,10,"As you study, you will be asked to rate your ability to remember the second item in the pair if you were only shown the first at test. You will make these ratings using a 0 to 100 Scale.",,Instruct13,16142,,,-1,-1,,,,,0.506
5d59b01348766d0016949e6a,0bwidlu9nb,"Mediated Recall_Prolific",1,3,2023-02-23T22:23:04+00:00,33.88459610939,4,versionB_stim.csv,JOLVersion.csv,JOL,JOL2,,,,,,0,Instruct,-,10,"For example, if you are given the pair CAT - DOG, a rating of 0 indicates that you would not remember DOG at test, while a rating of 100 indicates full certainty that you would remember the word DOG at test.",,Instruct14,33567,,,-1,-1,,,,,1
5d59b01348766d0016949e6a,0bwidlu9nb,"Mediated Recall_Prolific",1,4,2023-02-23T22:23:18+00:00,14.130844831467,4,versionB_stim.csv,JOLVersion.csv,JOL,JOL2,,,,,,0,Instruct,-,10,"When making your ratings, it is criticial that you use the full range of the scale. You will be disqualified for only giving ratings of 0 or 100! After making your rating, press Enter to advance to the next pair.",,Instruct15,13803,,,-1,-1,,,,,1
5d59b01348766d0016949e6a,0bwidlu9nb,"Mediated Recall_Prolific",1,5,2023-02-23T22:23:23+00:00,4.9931101799011,4,versionB_stim.csv,JOLVersion.csv,JOL,JOL2,,,,,,0,Instruct,User,-,"You will now begin the study. Press Enter when you are ready to begin.",,Instruct16,4778,,,-1,-1,,,,,1
5d59b01348766d0016949e6a,0bwidlu9nb,"Mediated Recall_Prolific",1,6,2023-02-23T22:23:29+00:00,5.8582239151001,4,versionB_stim.csv,JOLVersion.csv,JOL,JOL2,SPRING,MARCH,BUFFER3,Buffer,4,4,JOL,User,-,"How likely are you to correctly recall the second item in the pair?|Type your response on a scale from 0-100 and then press Enter.",Study/JOL,BUFFER,5555,,,4519,4769,,,,75,1
5d59b01348766d0016949e6a,0bwidlu9nb,"Mediated Recall_Prolific",1,7,2023-02-23T22:23:32+00:00,3.2846391201019,4,versionB_stim.csv,JOLVersion.csv,JOL,JOL2,MONTH,YEAR,BUFFER3,Buffer,2,2,JOL,User,-,"How likely are you to correctly recall the second item in the pair?|Type your response on a scale from 0-100 and then press Enter.",Study/JOL,BUFFER,3104,,,2415,2521,,,,90,1
5d59b01348766d0016949e6a,0bwidlu9nb,"Mediated Recall_Prolific",1,8,2023-02-23T22:23:35+00:00,3.1295487880707,4,versionB_stim.csv,JOLVersion.csv,JOL,JOL2,OCTOBER,SPOOKY,BUFFER3,Buffer,5,6,JOL,User,-,"How likely are you to correctly recall the second item in the pair?|Type your response on a scale from 0-100 and then press Enter.",Study/JOL,BUFFER,2811,,,2185,2523,,,,75,1
5d59b01348766d0016949e6a,0bwidlu9nb,"Mediated Recall_Prolific",1,9,2023-02-23T22:23:39+00:00,3.7038590908051,4,versionB_stim.csv,JOLVersion.csv,JOL,JOL2,DAYS,WEAKS,BUFFER3,Buffer,1,5,JOL,User,-,"How likely are you to correctly recall the second item in the pair?|Type your response on a scale from 0-100 and then press Enter.",Study/JOL,BUFFER,3529,,,3042,3184,,,,15,1
5d59b01348766d0016949e6a,0bwidlu9nb,"Mediated Recall_Prolific",1,10,2023-02-23T22:23:42+00:00,3.3426609039307,4,versionB_stim.csv,JOLVersion.csv,JOL,JOL2,TOOL,SHED,BUFFER3,Buffer,3,3,JOL,User,-,"How likely are you to correctly recall the second item in the pair?|Type your response on a scale from 0-100 and then press Enter.",Study/JOL,BUFFER,3151,,,2348,2615,,,,90,1
5d59b01348766d0016949e6a,0bwidlu9nb,"Mediated Recall_Prolific",1,11,2023-02-23T22:23:44+00:00,2.1611042022705,4,versionB_stim.csv,JOLVersion.csv,JOL,JOL2,BRIDGE,WATER,Study2,F,35,36,JOL,User,-,"How likely are you to correctly recall the second item in the pair?|Type your response on a scale from 0-100 and then press Enter.",Study/JOL,"Study Phase",1984,,,1528,1697,,,,80,1
5d59b01348766d0016949e6a,0bwidlu9nb,"Mediated Recall_Prolific",1,12,2023-02-23T22:23:48+00:00,3.4983978271484,4,versionB_stim.csv,JOLVersion.csv,JOL,JOL2,HAPPY,CAR,Study2,U,37,15,JOL,User,-,"How likely are you to correctly recall the second item in the pair?|Type your response on a scale from 0-100 and then press Enter.",Study/JOL,"Study Phase",3315,,,1646,1853,,,,20,1
5d59b01348766d0016949e6a,0bwidlu9nb,"Mediated Recall_Prolific",1,13,2023-02-23T22:23:52+00:00,4.5977959632874,4,versionB_stim.csv,JOLVersion.csv,JOL,JOL2,OVEN,BASKET,Study2,M,16,23,JOL,User,-,"How likely are you to correctly recall the second item in the pair?|Type your response on a scale from 0-100 and then press Enter.",Study/JOL,"Study Phase",4426,,,2669,3784,,,,50,1
5d59b01348766d0016949e6a,0bwidlu9nb,"Mediated Recall_Prolific",1,14,2023-02-23T22:23:55+00:00,2.5675690174103,4,versionB_stim.csv,JOLVersion.csv,JOL,JOL2,PUSH,CLUTTER,Study2,U,41,45,JOL,User,-,"How likely are you to correctly recall the second item in the pair?|Type your response on a scale from 0-100 and then press Enter.",Study/JOL,"Study Phase",2343,,,1643,1887,,,,10,1
5d59b01348766d0016949e6a,0bwidlu9nb,"Mediated Recall_Prolific",1,15,2023-02-23T22:24:00+00:00,5.5266220569611,4,versionB_stim.csv,JOLVersion.csv,JOL,JOL2,CHOP,CUT,Study2,F,22,38,JOL,User,-,"How likely are you to correctly recall the second item in the pair?|Type your response on a scale from 0-100 and then press Enter.",Study/JOL,"Study Phase",5203,,,4596,4801,,,,40,1
5d59b01348766d0016949e6a,0bwidlu9nb,"Mediated Recall_Prolific",1,16,2023-02-23T22:24:04+00:00,3.4565069675446,4,versionB_stim.csv,JOLVersion.csv,JOL,JOL2,CHISEL,HAMMER,Study2,F,23,22,JOL,User,-,"How likely are you to correctly recall the second item in the pair?|Type your response on a scale from 0-100 and then press Enter.",Study/JOL,"Study Phase",3279,,,2482,2789,,,,70,1
5d59b01348766d0016949e6a,0bwidlu9nb,"Mediated Recall_Prolific",1,17,2023-02-23T22:24:07+00:00,3.5635201931,4,versionB_stim.csv,JOLVersion.csv,JOL,JOL2,CASH,LEG,Study2,U,50,21,JOL,User,-,"How likely are you to correctly recall the second item in the pair?|Type your response on a scale from 0-100 and then press Enter.",Study/JOL,"Study Phase",3389,,,2766,2904,,,,10,1
5d59b01348766d0016949e6a,0bwidlu9nb,"Mediated Recall_Prolific",1,18,2023-02-23T22:24:11+00:00,3.453864812851,4,versionB_stim.csv,JOLVersion.csv,JOL,JOL2,ARTERY,BRONZE,Study2,U,48,10,JOL,User,-,"How likely are you to correctly recall the second item in the pair?|Type your response on a scale from 0-100 and then press Enter.",Study/JOL,"Study Phase",3277,,,2555,2780,,,,15,1
5d59b01348766d0016949e6a,0bwidlu9nb,"Mediated Recall_Prolific",1,19,2023-02-23T22:24:14+00:00,3.0266840457916,4,versionB_stim.csv,JOLVersion.csv,JOL,JOL2,BOTH,OUNCE,Study2,U,47,14,JOL,User,-,"How likely are you to correctly recall the second item in the pair?|Type your response on a scale from 0-100 and then press Enter.",Study/JOL,"Study Phase",2834,,,2208,2442,,,,10,1
5d59b01348766d0016949e6a,0bwidlu9nb,"Mediated Recall_Prolific",1,20,2023-02-23T22:24:20+00:00,6.3748590946198,4,versionB_stim.csv,JOLVersion.csv,JOL,JOL2,ATTIRE,CLOTHES,Study2,F,24,32,JOL,User,-,"How likely are you to correctly recall the second item in the pair?|Type your response on a scale from 0-100 and then press Enter.",Study/JOL,"Study Phase",6043,,,5441,5567,,,,80,1
5d59b01348766d0016949e6a,0bwidlu9nb,"Mediated Recall_Prolific",1,21,2023-02-23T22:24:23+00:00,2.700129032135,4,versionB_stim.csv,JOLVersion.csv,JOL,JOL2,KING,VASE,Study2,U,36,16,JOL,User,-,"How likely are you to correctly recall the second item in the pair?|Type your response on a scale from 0-100 and then press Enter.",Study/JOL,"Study Phase",2377,,,1627,1830,,,,15,1
5d59b01348766d0016949e6a,0bwidlu9nb,"Mediated Recall_Prolific",1,22,2023-02-23T22:24:27+00:00,4.0479919910431,4,versionB_stim.csv,JOLVersion.csv,JOL,JOL2,RAZOR,MUSCLE,Study2,M,20,31,JOL,User,-,"How likely are you to correctly recall the second item in the pair?|Type your response on a scale from 0-100 and then press Enter.",Study/JOL,"Study Phase",3661,,,2906,3069,,,,50,1
5d59b01348766d0016949e6a,0bwidlu9nb,"Mediated Recall_Prolific",1,23,2023-02-23T22:24:30+00:00,3.1455910205841,4,versionB_stim.csv,JOLVersion.csv,JOL,JOL2,REALITY,ISLAND,Study2,M,9,20,JOL,User,-,"How likely are you to correctly recall the second item in the pair?|Type your response on a scale from 0-100 and then press Enter.",Study/JOL,"Study Phase",2808,,,2191,2391,,,,20,1
5d59b01348766d0016949e6a,0bwidlu9nb,"Mediated Recall_Prolific",1,24,2023-02-23T22:24:48+00:00,17.631236791611,4,versionB_stim.csv,JOLVersion.csv,JOL,JOL2,STRONG,ACCIDENT,Study2,U,39,42,JOL,User,-,"How likely are you to correctly recall the second item in the pair?|Type your response on a scale from 0-100 and then press Enter.",Study/JOL,"Study Phase",17310,,,16514,16980,,,,15,1
5d59b01348766d0016949e6a,0bwidlu9nb,"Mediated Recall_Prolific",1,25,2023-02-23T22:24:50+00:00,2.1451630592346,4,versionB_stim.csv,JOLVersion.csv,JOL,JOL2,ART,WOLF,Study2,U,38,44,JOL,User,-,"How likely are you to correctly recall the second item in the pair?|Type your response on a scale from 0-100 and then press Enter.",Study/JOL,"Study Phase",1967,,,1252,1394,,,,10,1
5d59b01348766d0016949e6a,0bwidlu9nb,"Mediated Recall_Prolific",1,26,2023-02-23T22:24:53+00:00,2.8056819438934,4,versionB_stim.csv,JOLVersion.csv,JOL,JOL2,MIRROR,CHILDREN,Study2,U,49,33,JOL,User,-,"How likely are you to correctly recall the second item in the pair?|Type your response on a scale from 0-100 and then press Enter.",Study/JOL,"Study Phase",2478,,,1833,1949,,,,10,1
5d59b01348766d0016949e6a,0bwidlu9nb,"Mediated Recall_Prolific",1,27,2023-02-23T22:24:55+00:00,2.3602781295776,4,versionB_stim.csv,JOLVersion.csv,JOL,JOL2,SICK,HIDE,Study2,U,45,49,JOL,User,-,"How likely are you to correctly recall the second item in the pair?|Type your response on a scale from 0-100 and then press Enter.",Study/JOL,"Study Phase",2161,,,1402,1629,,,,15,1
5d59b01348766d0016949e6a,0bwidlu9nb,"Mediated Recall_Prolific",1,28,2023-02-23T22:24:58+00:00,2.4081490039825,4,versionB_stim.csv,JOLVersion.csv,JOL,JOL2,HEAVY,FEATHER,Study2,M,13,43,JOL,User,-,"How likely are you to correctly recall the second item in the pair?|Type your response on a scale from 0-100 and then press Enter.",Study/JOL,"Study Phase",2232,,,1866,1895,,,,50,1
5d59b01348766d0016949e6a,0bwidlu9nb,"Mediated Recall_Prolific",1,29,2023-02-23T22:25:00+00:00,2.1898219585419,4,versionB_stim.csv,JOLVersion.csv,JOL,JOL2,TRAP,CAVE,Study2,M,15,37,JOL,User,-,"How likely are you to correctly recall the second item in the pair?|Type your response on a scale from 0-100 and then press Enter.",Study/JOL,"Study Phase",1982,,,1485,1677,,,,40,1
5d59b01348766d0016949e6a,0bwidlu9nb,"Mediated Recall_Prolific",1,30,2023-02-23T22:25:02+00:00,2.5017890930176,4,versionB_stim.csv,JOLVersion.csv,JOL,JOL2,NURSE,LAWYER,Study2,M,11,25,JOL,User,-,"How likely are you to correctly recall the second item in the pair?|Type your response on a scale from 0-100 and then press Enter.",Study/JOL,"Study Phase",2166,,,1768,1898,,,,60,1
5d59b01348766d0016949e6a,0bwidlu9nb,"Mediated Recall_Prolific",1,31,2023-02-23T22:25:04+00:00,2.2634990215302,4,versionB_stim.csv,JOLVersion.csv,JOL,JOL2,RAKE,SEED,Study2,M,14,41,JOL,User,-,"How likely are you to correctly recall the second item in the pair?|Type your response on a scale from 0-100 and then press Enter.",Study/JOL,"Study Phase",2044,,,1678,1726,,,,50,1
5d59b01348766d0016949e6a,0bwidlu9nb,"Mediated Recall_Prolific",1,32,2023-02-23T22:25:07+00:00,2.4972219467163,4,versionB_stim.csv,JOLVersion.csv,JOL,JOL2,DIETARY,SACK,Study2,U,42,8,JOL,User,-,"How likely are you to correctly recall the second item in the pair?|Type your response on a scale from 0-100 and then press Enter.",Study/JOL,"Study Phase",2316,,,1903,2021,,,,20,1
5d59b01348766d0016949e6a,0bwidlu9nb,"Mediated Recall_Prolific",1,33,2023-02-23T22:25:09+00:00,2.3710739612579,4,versionB_stim.csv,JOLVersion.csv,JOL,JOL2,CACTUS,PLANT,Study2,F,21,39,JOL,User,-,"How likely are you to correctly recall the second item in the pair?|Type your response on a scale from 0-100 and then press Enter.",Study/JOL,"Study Phase",2194,,,1785,1892,,,,80,1
5d59b01348766d0016949e6a,0bwidlu9nb,"Mediated Recall_Prolific",1,34,2023-02-23T22:25:14+00:00,4.4134540557861,4,versionB_stim.csv,JOLVersion.csv,JOL,JOL2,LEASE,TOIL,Study2,U,46,11,JOL,User,-,"How likely are you to correctly recall the second item in the pair?|Type your response on a scale from 0-100 and then press Enter.",Study/JOL,"Study Phase",4239,,,3781,3932,,,,15,1
5d59b01348766d0016949e6a,0bwidlu9nb,"Mediated Recall_Prolific",1,35,2023-02-23T22:25:18+00:00,4.5277438163757,4,versionB_stim.csv,JOLVersion.csv,JOL,JOL2,VALLEY,PEAK,Study2,M,18,12,JOL,User,-,"How likely are you to correctly recall the second item in the pair?|Type your response on a scale from 0-100 and then press Enter.",Study/JOL,"Study Phase",4330,,,3566,3792,,,,80,1
5d59b01348766d0016949e6a,0bwidlu9nb,"Mediated Recall_Prolific",1,36,2023-02-23T22:25:21+00:00,2.4981532096863,4,versionB_stim.csv,JOLVersion.csv,JOL,JOL2,INCENSE,SMELL,Study2,F,28,18,JOL,User,-,"How likely are you to correctly recall the second item in the pair?|Type your response on a scale from 0-100 and then press Enter.",Study/JOL,"Study Phase",2191,,,1789,1870,,,,90,1
5d59b01348766d0016949e6a,0bwidlu9nb,"Mediated Recall_Prolific",1,37,2023-02-23T22:25:25+00:00,4.0272469520569,4,versionB_stim.csv,JOLVersion.csv,JOL,JOL2,CHERRY,RED,Study2,F,25,28,JOL,User,-,"How likely are you to correctly recall the second item in the pair?|Type your response on a scale from 0-100 and then press Enter.",Study/JOL,"Study Phase",3820,,,3224,3469,,,,90,1
5d59b01348766d0016949e6a,0bwidlu9nb,"Mediated Recall_Prolific",1,38,2023-02-23T22:25:28+00:00,3.0027358531952,4,versionB_stim.csv,JOLVersion.csv,JOL,JOL2,WINDOW,KNOB,Study2,M,19,51,JOL,User,-,"How likely are you to correctly recall the second item in the pair?|Type your response on a scale from 0-100 and then press Enter.",Study/JOL,"Study Phase",2822,,,2386,2481,,,,50,1
5d59b01348766d0016949e6a,0bwidlu9nb,"Mediated Recall_Prolific",1,39,2023-02-23T22:25:30+00:00,2.5304961204529,4,versionB_stim.csv,JOLVersion.csv,JOL,JOL2,SOAP,DRINK,Study2,M,12,19,JOL,User,-,"How likely are you to correctly recall the second item in the pair?|Type your response on a scale from 0-100 and then press Enter.",Study/JOL,"Study Phase",2354,,,1883,1992,,,,10,1
5d59b01348766d0016949e6a,0bwidlu9nb,"Mediated Recall_Prolific",1,40,2023-02-23T22:25:34+00:00,4.0397770404816,4,versionB_stim.csv,JOLVersion.csv,JOL,JOL2,DOCUMENT,PAPER,Study2,F,27,50,JOL,User,-,"How likely are you to correctly recall the second item in the pair?|Type your response on a scale from 0-100 and then press Enter.",Study/JOL,"Study Phase",3813,,,3213,3309,,,,50,1
5d59b01348766d0016949e6a,0bwidlu9nb,"Mediated Recall_Prolific",1,41,2023-02-23T22:25:41+00:00,6.164265871048,4,versionB_stim.csv,JOLVersion.csv,JOL,JOL2,PANTS,COLLAR,Study2,M,8,29,JOL,User,-,"How likely are you to correctly recall the second item in the pair?|Type your response on a scale from 0-100 and then press Enter.",Study/JOL,"Study Phase",5838,,,4991,5259,,,,25,1
5d59b01348766d0016949e6a,0bwidlu9nb,"Mediated Recall_Prolific",1,42,2023-02-23T22:25:43+00:00,2.5436971187592,4,versionB_stim.csv,JOLVersion.csv,JOL,JOL2,SUMMER,SNOW,Study2,M,6,26,JOL,User,-,"How likely are you to correctly recall the second item in the pair?|Type your response on a scale from 0-100 and then press Enter.",Study/JOL,"Study Phase",2338,,,1826,1981,,,,50,1
5d59b01348766d0016949e6a,0bwidlu9nb,"Mediated Recall_Prolific",1,43,2023-02-23T22:25:45+00:00,2.2393050193787,4,versionB_stim.csv,JOLVersion.csv,JOL,JOL2,CHILL,COLD,Study2,F,32,35,JOL,User,-,"How likely are you to correctly recall the second item in the pair?|Type your response on a scale from 0-100 and then press Enter.",Study/JOL,"Study Phase",2058,,,1434,1615,,,,90,1
5d59b01348766d0016949e6a,0bwidlu9nb,"Mediated Recall_Prolific",1,44,2023-02-23T22:25:47+00:00,2.1312890052795,4,versionB_stim.csv,JOLVersion.csv,JOL,JOL2,DEATH,BUSINESS,Study2,U,44,46,JOL,User,-,"How likely are you to correctly recall the second item in the pair?|Type your response on a scale from 0-100 and then press Enter.",Study/JOL,"Study Phase",1939,,,1408,1600,,,,50,1
5d59b01348766d0016949e6a,0bwidlu9nb,"Mediated Recall_Prolific",1,45,2023-02-23T22:25:52+00:00,4.8544030189514,4,versionB_stim.csv,JOLVersion.csv,JOL,JOL2,FEUD,FIGHT,Study2,F,31,9,JOL,User,-,"How likely are you to correctly recall the second item in the pair?|Type your response on a scale from 0-100 and then press Enter.",Study/JOL,"Study Phase",4496,,,3709,4193,,,,100,1
5d59b01348766d0016949e6a,0bwidlu9nb,"Mediated Recall_Prolific",1,46,2023-02-23T22:25:54+00:00,2.1956408023834,4,versionB_stim.csv,JOLVersion.csv,JOL,JOL2,HORNET,STING,Study2,F,30,48,JOL,User,-,"How likely are you to correctly recall the second item in the pair?|Type your response on a scale from 0-100 and then press Enter.",Study/JOL,"Study Phase",1992,,,1505,1606,,,,90,1
5d59b01348766d0016949e6a,0bwidlu9nb,"Mediated Recall_Prolific",1,47,2023-02-23T22:25:57+00:00,2.7235600948334,4,versionB_stim.csv,JOLVersion.csv,JOL,JOL2,HERD,COW,Study2,F,33,24,JOL,User,-,"How likely are you to correctly recall the second item in the pair?|Type your response on a scale from 0-100 and then press Enter.",Study/JOL,"Study Phase",2548,,,2152,2242,,,,90,1
5d59b01348766d0016949e6a,0bwidlu9nb,"Mediated Recall_Prolific",1,48,2023-02-23T22:26:00+00:00,3.2012050151825,4,versionB_stim.csv,JOLVersion.csv,JOL,JOL2,WASP,BUG,Study2,F,34,17,JOL,User,-,"How likely are you to correctly recall the second item in the pair?|Type your response on a scale from 0-100 and then press Enter.",Study/JOL,"Study Phase",3013,,,2285,2537,,,,85,1
5d59b01348766d0016949e6a,0bwidlu9nb,"Mediated Recall_Prolific",1,49,2023-02-23T22:26:03+00:00,2.5531079769135,4,versionB_stim.csv,JOLVersion.csv,JOL,JOL2,SUGAR,RIDDLE,Study2,U,40,47,JOL,User,-,"How likely are you to correctly recall the second item in the pair?|Type your response on a scale from 0-100 and then press Enter.",Study/JOL,"Study Phase",2386,,,1394,2094,,,,15,1
5d59b01348766d0016949e6a,0bwidlu9nb,"Mediated Recall_Prolific",1,50,2023-02-23T22:26:06+00:00,3.5104269981384,4,versionB_stim.csv,JOLVersion.csv,JOL,JOL2,GRILL,THIGH,Study2,M,17,27,JOL,User,-,"How likely are you to correctly recall the second item in the pair?|Type your response on a scale from 0-100 and then press Enter.",Study/JOL,"Study Phase",3336,,,2729,2895,,,,30,1
5d59b01348766d0016949e6a,0bwidlu9nb,"Mediated Recall_Prolific",1,51,2023-02-23T22:26:10+00:00,3.8285779953003,4,versionB_stim.csv,JOLVersion.csv,JOL,JOL2,SCHOOL,STOP,Study2,M,7,7,JOL,User,-,"How likely are you to correctly recall the second item in the pair?|Type your response on a scale from 0-100 and then press Enter.",Study/JOL,"Study Phase",3655,,,3072,3221,,,,40,1
5d59b01348766d0016949e6a,0bwidlu9nb,"Mediated Recall_Prolific",1,52,2023-02-23T22:26:14+00:00,3.737165927887,4,versionB_stim.csv,JOLVersion.csv,JOL,JOL2,EYES,SMELL,Study2,M,10,34,JOL,User,-,"How likely are you to correctly recall the second item in the pair?|Type your response on a scale from 0-100 and then press Enter.",Study/JOL,"Study Phase",3562,,,2484,2905,,,,35,1
5d59b01348766d0016949e6a,0bwidlu9nb,"Mediated Recall_Prolific",1,53,2023-02-23T22:26:17+00:00,2.8199110031128,4,versionB_stim.csv,JOLVersion.csv,JOL,JOL2,LEAGUE,BASEBALL,Study2,F,29,40,JOL,User,-,"How likely are you to correctly recall the second item in the pair?|Type your response on a scale from 0-100 and then press Enter.",Study/JOL,"Study Phase",2652,,,2229,2338,,,,80,1
5d59b01348766d0016949e6a,0bwidlu9nb,"Mediated Recall_Prolific",1,54,2023-02-23T22:26:20+00:00,2.8245980739594,4,versionB_stim.csv,JOLVersion.csv,JOL,JOL2,BENCH,HORN,Study2,U,43,13,JOL,User,-,"How likely are you to correctly recall the second item in the pair?|Type your response on a scale from 0-100 and then press Enter.",Study/JOL,"Study Phase",2654,,,2185,2366,,,,40,1
5d59b01348766d0016949e6a,0bwidlu9nb,"Mediated Recall_Prolific",1,55,2023-02-23T22:26:22+00:00,2.1877589225769,4,versionB_stim.csv,JOLVersion.csv,JOL,JOL2,BLAZE,FIRE,Study2,F,26,30,JOL,User,-,"How likely are you to correctly recall the second item in the pair?|Type your response on a scale from 0-100 and then press Enter.",Study/JOL,"Study Phase",1856,,,1378,1484,,,,20,1
5d59b01348766d0016949e6a,0bwidlu9nb,"Mediated Recall_Prolific",1,56,2023-02-23T22:26:25+00:00,3.4746010303497,4,versionB_stim.csv,JOLVersion.csv,JOL,JOL2,CARROT,POTATO,BUFFER4,Buffer,51,54,JOL,User,-,"How likely are you to correctly recall the second item in the pair?|Type your response on a scale from 0-100 and then press Enter.",Study/JOL,BUFFER2,3272,,,2841,2915,,,,40,1
5d59b01348766d0016949e6a,0bwidlu9nb,"Mediated Recall_Prolific",1,57,2023-02-23T22:26:29+00:00,3.81582903862,4,versionB_stim.csv,JOLVersion.csv,JOL,JOL2,SCARE,FRIGHT,BUFFER1,Buffer,59,59,JOL,User,-,"How likely are you to correctly recall the second item in the pair?|Type your response on a scale from 0-100 and then press Enter.",Study/JOL,BUFFER2,3502,,,3071,3155,,,,80,1
5d59b01348766d0016949e6a,0bwidlu9nb,"Mediated Recall_Prolific",1,58,2023-02-23T22:26:32+00:00,2.6695671081543,4,versionB_stim.csv,JOLVersion.csv,JOL,JOL2,NOODLE,STRING,BUFFER4,Buffer,52,56,JOL,User,-,"How likely are you to correctly recall the second item in the pair?|Type your response on a scale from 0-100 and then press Enter.",Study/JOL,BUFFER2,2476,,,1998,2110,,,,30,1
5d59b01348766d0016949e6a,0bwidlu9nb,"Mediated Recall_Prolific",1,59,2023-02-23T22:26:36+00:00,3.7527749538422,4,versionB_stim.csv,JOLVersion.csv,JOL,JOL2,CAMP,ADVENTURE,BUFFER4,Buffer,55,52,JOL,User,-,"How likely are you to correctly recall the second item in the pair?|Type your response on a scale from 0-100 and then press Enter.",Study/JOL,BUFFER2,3572,,,2086,3289,,,,10,1
5d59b01348766d0016949e6a,0bwidlu9nb,"Mediated Recall_Prolific",1,60,2023-02-23T22:26:47+00:00,11.458081960678,4,versionB_stim.csv,JOLVersion.csv,JOL,JOL2,MOON,SPACE,BUFFER2,Buffer,109,111,JOL,User,-,"How likely are you to correctly recall the second item in the pair?|Type your response on a scale from 0-100 and then press Enter.",Study/JOL,BUFFER2,11139,,,9863,9951,,,,60,1
5d59b01348766d0016949e6a,0bwidlu9nb,"Mediated Recall_Prolific",1,61,2023-02-23T22:26:50+00:00,2.6005880832672,4,versionB_stim.csv,JOLVersion.csv,JOL,JOL2,,,,,,0,Instruct,User,-,"You have completed this section. Please press Enter.",Filler_Instruction,Instruct2,2398,,,-1,-1,,,,,1
5d59b01348766d0016949e6a,0bwidlu9nb,"Mediated Recall_Prolific",1,62,2023-02-23T22:28:50+00:00,120.34379291534,4,versionB_stim.csv,JOLVersion.csv,JOL,JOL2,,,,,,0,FreeRecall,120,120,"Please list the 50 US states in alphabetical order. The task will automatically advance to the next screen after two minutes.",,Filler1,120011,"Alabama Alaska Arizona Arkansas California Colorado Connecticut Delaware Florida Georgia Hawaii Idaho Illinois Indiana Iowa Kansas Kentucky Louisiana Maine Maryland Massachussets Michigan Minnesota Mississippi Missouri Montana Nebraska Nevada New Hampshire New Jersey New Mexico North Carolina North Dakota Ohio Oklahoma Oregon Pennsylvania Rhode Island South Carolina South Dakota ",0,4168,115219,0,0,,,1
5d59b01348766d0016949e6a,0bwidlu9nb,"Mediated Recall_Prolific",1,63,2023-02-23T22:29:03+00:00,12.734594106674,4,versionB_stim.csv,JOLVersion.csv,JOL,JOL2,,,,,,0,Instruct,-,10,"You will now be presented with the first word from each of the previously studied item pairs. Please type the missing word. If you do not know the word, you may guess or press Enter to skip forward to the next pair.",,Instruct3,12389,,,-1,-1,,,,,1
5d59b01348766d0016949e6a,0bwidlu9nb,"Mediated Recall_Prolific",1,64,2023-02-23T22:29:05+00:00,2.6472640037537,4,versionB_stim.csv,JOLVersion.csv,JOL,JOL2,BRIDGE,WATER,Study2,F,35,36,Test,User,-,,Recall,Recall1,2317,water,100,1006,1370,1,1,,,1
5d59b01348766d0016949e6a,0bwidlu9nb,"Mediated Recall_Prolific",1,65,2023-02-23T22:29:08+00:00,2.1990427970886,4,versionB_stim.csv,JOLVersion.csv,JOL,JOL2,BLAZE,FIRE,Study2,F,26,30,Test,User,-,,Recall,Recall1,1999,FIRE,100,1440,1797,1,1,,,1
5d59b01348766d0016949e6a,0bwidlu9nb,"Mediated Recall_Prolific",1,66,2023-02-23T22:29:13+00:00,5.7771770954132,4,versionB_stim.csv,JOLVersion.csv,JOL,JOL2,DIETARY,SACK,Study2,U,42,8,Test,User,-,,Recall,Recall1,5454,FAT,28.571428571429,5021,5261,0,0,,,1
5d59b01348766d0016949e6a,0bwidlu9nb,"Mediated Recall_Prolific",1,67,2023-02-23T22:29:19+00:00,5.5700829029083,4,versionB_stim.csv,JOLVersion.csv,JOL,JOL2,RAZOR,MUSCLE,Study2,M,20,31,Test,User,-,,Recall,Recall1,5255,PAPER,18.181818181818,4720,5191,0,0,,,1
5d59b01348766d0016949e6a,0bwidlu9nb,"Mediated Recall_Prolific",1,68,2023-02-23T22:29:21+00:00,2.4344971179962,4,versionB_stim.csv,JOLVersion.csv,JOL,JOL2,CHISEL,HAMMER,Study2,F,23,22,Test,User,-,,Recall,Recall1,2251,HAMMER,100,1112,1957,1,1,,,1
5d59b01348766d0016949e6a,0bwidlu9nb,"Mediated Recall_Prolific",1,69,2023-02-23T22:29:25+00:00,3.3071439266205,4,versionB_stim.csv,JOLVersion.csv,JOL,JOL2,WINDOW,KNOB,Study2,M,19,51,Test,User,-,,Recall,Recall1,3113,KNOB,100,1525,2848,1,1,,,1
5d59b01348766d0016949e6a,0bwidlu9nb,"Mediated Recall_Prolific",1,70,2023-02-23T22:29:27+00:00,1.8947579860687,4,versionB_stim.csv,JOLVersion.csv,JOL,JOL2,CACTUS,PLANT,Study2,F,21,39,Test,User,-,,Recall,Recall1,1687,PLANT,100,1026,1510,1,1,,,1
5d59b01348766d0016949e6a,0bwidlu9nb,"Mediated Recall_Prolific",1,71,2023-02-23T22:29:30+00:00,3.0483529567719,4,versionB_stim.csv,JOLVersion.csv,JOL,JOL2,STRONG,ACCIDENT,Study2,U,39,42,Test,User,-,,Recall,Recall1,2863,HEAVY,15.384615384615,2055,2507,0,0,,,1
5d59b01348766d0016949e6a,0bwidlu9nb,"Mediated Recall_Prolific",1,72,2023-02-23T22:29:38+00:00,8.3280081748962,4,versionB_stim.csv,JOLVersion.csv,JOL,JOL2,BENCH,HORN,Study2,U,43,13,Test,User,-,,Recall,Recall1,8016,METAL,0,7223,7810,0,0,,,1
5d59b01348766d0016949e6a,0bwidlu9nb,"Mediated Recall_Prolific",1,73,2023-02-23T22:29:42+00:00,4.0845739841461,4,versionB_stim.csv,JOLVersion.csv,JOL,JOL2,CHILL,COLD,Study2,F,32,35,Test,User,-,,Recall,Recall1,3765,COLD,100,2324,3625,1,1,,,1
5d59b01348766d0016949e6a,0bwidlu9nb,"Mediated Recall_Prolific",1,74,2023-02-23T22:29:47+00:00,4.8500218391418,4,versionB_stim.csv,JOLVersion.csv,JOL,JOL2,PANTS,COLLAR,Study2,M,8,29,Test,User,-,,Recall,Recall1,4490,COLLAR,100,3798,4387,1,1,,,1
5d59b01348766d0016949e6a,0bwidlu9nb,"Mediated Recall_Prolific",1,75,2023-02-23T22:29:50+00:00,3.4039831161499,4,versionB_stim.csv,JOLVersion.csv,JOL,JOL2,GRILL,THIGH,Study2,M,17,27,Test,User,-,,Recall,Recall1,3084,STOVE,20,2388,2995,0,0,,,1
5d59b01348766d0016949e6a,0bwidlu9nb,"Mediated Recall_Prolific",1,76,2023-02-23T22:29:55+00:00,5.074991941452,4,versionB_stim.csv,JOLVersion.csv,JOL,JOL2,RAKE,SEED,Study2,M,14,41,Test,User,-,,Recall,Recall1,4716,SEED,100,3192,3797,1,1,,,1
5d59b01348766d0016949e6a,0bwidlu9nb,"Mediated Recall_Prolific",1,77,2023-02-23T22:29:57+00:00,2.0249290466309,4,versionB_stim.csv,JOLVersion.csv,JOL,JOL2,INCENSE,SMELL,Study2,F,28,18,Test,User,-,,Recall,Recall1,1848,SMELL,100,1098,1737,1,1,,,1
5d59b01348766d0016949e6a,0bwidlu9nb,"Mediated Recall_Prolific",1,78,2023-02-23T22:30:00+00:00,2.3691198825836,4,versionB_stim.csv,JOLVersion.csv,JOL,JOL2,SCHOOL,STOP,Study2,M,7,7,Test,User,-,,Recall,Recall1,2184,STOP,100,1815,2047,1,1,,,1
5d59b01348766d0016949e6a,0bwidlu9nb,"Mediated Recall_Prolific",1,79,2023-02-23T22:30:09+00:00,9.4531011581421,4,versionB_stim.csv,JOLVersion.csv,JOL,JOL2,EYES,SMELL,Study2,M,10,34,Test,User,-,,Recall,Recall1,9150,SMELL,100,1939,9029,1,1,,,1
5d59b01348766d0016949e6a,0bwidlu9nb,"Mediated Recall_Prolific",1,80,2023-02-23T22:30:13+00:00,3.605073928833,4,versionB_stim.csv,JOLVersion.csv,JOL,JOL2,SUGAR,RIDDLE,Study2,U,40,47,Test,User,-,,Recall,Recall1,3382,CUBE,20,2584,3270,0,0,,,1
5d59b01348766d0016949e6a,0bwidlu9nb,"Mediated Recall_Prolific",1,81,2023-02-23T22:30:15+00:00,2.5318441390991,4,versionB_stim.csv,JOLVersion.csv,JOL,JOL2,CHERRY,RED,Study2,F,25,28,Test,User,-,,Recall,Recall1,2351,RED,100,1117,2148,1,1,,,1
5d59b01348766d0016949e6a,0bwidlu9nb,"Mediated Recall_Prolific",1,82,2023-02-23T22:30:19+00:00,3.7514338493347,4,versionB_stim.csv,JOLVersion.csv,JOL,JOL2,LEAGUE,BASEBALL,Study2,F,29,40,Test,User,-,,Recall,Recall1,3571,BASEBALL,100,1161,3391,1,1,,,1
5d59b01348766d0016949e6a,0bwidlu9nb,"Mediated Recall_Prolific",1,83,2023-02-23T22:30:24+00:00,4.896115064621,4,versionB_stim.csv,JOLVersion.csv,JOL,JOL2,BOTH,OUNCE,Study2,U,47,14,Test,User,-,,Recall,Recall1,4723,OUT,50,4399,4535,0,0,,,1
5d59b01348766d0016949e6a,0bwidlu9nb,"Mediated Recall_Prolific",1,84,2023-02-23T22:30:26+00:00,2.4321849346161,4,versionB_stim.csv,JOLVersion.csv,JOL,JOL2,DEATH,BUSINESS,Study2,U,44,46,Test,User,-,,Recall,Recall1,2237,BUSINESS,100,1300,2121,1,1,,,1
5d59b01348766d0016949e6a,0bwidlu9nb,"Mediated Recall_Prolific",1,85,2023-02-23T22:30:29+00:00,3.0474200248718,4,versionB_stim.csv,JOLVersion.csv,JOL,JOL2,HERD,COW,Study2,F,33,24,Test,User,-,,Recall,Recall1,2681,COW,100,1448,2206,1,1,,,1
5d59b01348766d0016949e6a,0bwidlu9nb,"Mediated Recall_Prolific",1,86,2023-02-23T22:30:31+00:00,1.7086501121521,4,versionB_stim.csv,JOLVersion.csv,JOL,JOL2,HORNET,STING,Study2,F,30,48,Test,User,-,,Recall,Recall1,1525,STING,100,956,1372,1,1,,,1
5d59b01348766d0016949e6a,0bwidlu9nb,"Mediated Recall_Prolific",1,87,2023-02-23T22:30:33+00:00,1.9831240177155,4,versionB_stim.csv,JOLVersion.csv,JOL,JOL2,DOCUMENT,PAPER,Study2,F,27,50,Test,User,-,,Recall,Recall1,1803,PAPER,100,969,1628,1,1,,,1
5d59b01348766d0016949e6a,0bwidlu9nb,"Mediated Recall_Prolific",1,88,2023-02-23T22:30:36+00:00,2.6411828994751,4,versionB_stim.csv,JOLVersion.csv,JOL,JOL2,CASH,LEG,Study2,U,50,21,Test,User,-,,Recall,Recall1,2454,HOLD,28.571428571429,1701,2164,0,0,,,1
5d59b01348766d0016949e6a,0bwidlu9nb,"Mediated Recall_Prolific",1,89,2023-02-23T22:30:39+00:00,3.6596319675446,4,versionB_stim.csv,JOLVersion.csv,JOL,JOL2,SICK,HIDE,Study2,U,45,49,Test,User,-,,Recall,Recall1,3454,HEAL,50,2284,2571,0,0,,,1
5d59b01348766d0016949e6a,0bwidlu9nb,"Mediated Recall_Prolific",1,90,2023-02-23T22:30:43+00:00,3.8362181186676,4,versionB_stim.csv,JOLVersion.csv,JOL,JOL2,OVEN,BASKET,Study2,M,16,23,Test,User,-,,Recall,Recall1,3668,STOVE,36.363636363636,2072,2806,0,0,,,1
5d59b01348766d0016949e6a,0bwidlu9nb,"Mediated Recall_Prolific",1,91,2023-02-23T22:30:54+00:00,10.718832969666,4,versionB_stim.csv,JOLVersion.csv,JOL,JOL2,KING,VASE,Study2,U,36,16,Test,User,-,,Recall,Recall1,10402,RULE,25,9213,10227,0,0,,,1
5d59b01348766d0016949e6a,0bwidlu9nb,"Mediated Recall_Prolific",1,92,2023-02-23T22:30:58+00:00,3.499342918396,4,versionB_stim.csv,JOLVersion.csv,JOL,JOL2,NURSE,LAWYER,Study2,M,11,25,Test,User,-,,Recall,Recall1,3132,LAWYER,100,2131,3001,1,1,,,1
5d59b01348766d0016949e6a,0bwidlu9nb,"Mediated Recall_Prolific",1,93,2023-02-23T22:31:07+00:00,9.6237819194794,4,versionB_stim.csv,JOLVersion.csv,JOL,JOL2,LEASE,TOIL,Study2,U,46,11,Test,User,-,,Recall,Recall1,9294,OWN,28.571428571429,8827,9092,0,0,,,1
5d59b01348766d0016949e6a,0bwidlu9nb,"Mediated Recall_Prolific",1,94,2023-02-23T22:31:09+00:00,2.2168090343475,4,versionB_stim.csv,JOLVersion.csv,JOL,JOL2,FEUD,FIGHT,Study2,F,31,9,Test,User,-,,Recall,Recall1,2032,FIGHT,100,1372,1810,1,1,,,1
5d59b01348766d0016949e6a,0bwidlu9nb,"Mediated Recall_Prolific",1,95,2023-02-23T22:31:17+00:00,7.331218957901,4,versionB_stim.csv,JOLVersion.csv,JOL,JOL2,TRAP,CAVE,Study2,M,15,37,Test,User,-,,Recall,Recall1,7016,NET,28.571428571429,6720,6930,0,0,,,1
5d59b01348766d0016949e6a,0bwidlu9nb,"Mediated Recall_Prolific",1,96,2023-02-23T22:31:20+00:00,3.3073041439056,4,versionB_stim.csv,JOLVersion.csv,JOL,JOL2,MIRROR,CHILDREN,Study2,U,49,33,Test,User,-,,Recall,Recall1,3129,PERSON,28.571428571429,2330,2949,0,0,,,1
5d59b01348766d0016949e6a,0bwidlu9nb,"Mediated Recall_Prolific",1,97,2023-02-23T22:31:24+00:00,3.5581848621368,4,versionB_stim.csv,JOLVersion.csv,JOL,JOL2,HEAVY,FEATHER,Study2,M,13,43,Test,User,-,,Recall,Recall1,3341,STRONG,30.769230769231,2664,3221,0,0,,,1
5d59b01348766d0016949e6a,0bwidlu9nb,"Mediated Recall_Prolific",1,98,2023-02-23T22:31:29+00:00,5.379114151001,4,versionB_stim.csv,JOLVersion.csv,JOL,JOL2,SOAP,DRINK,Study2,M,12,19,Test,User,-,,Recall,Recall1,5067,WATER,20,4484,4838,0,0,,,1
5d59b01348766d0016949e6a,0bwidlu9nb,"Mediated Recall_Prolific",1,99,2023-02-23T22:31:32+00:00,2.7810740470886,4,versionB_stim.csv,JOLVersion.csv,JOL,JOL2,ATTIRE,CLOTHES,Study2,F,24,32,Test,User,-,,Recall,Recall1,2591,CLOTHES,100,1502,2468,1,1,,,1
5d59b01348766d0016949e6a,0bwidlu9nb,"Mediated Recall_Prolific",1,100,2023-02-23T22:31:37+00:00,5.6619689464569,4,versionB_stim.csv,JOLVersion.csv,JOL,JOL2,WASP,BUG,Study2,F,34,17,Test,User,-,,Recall,Recall1,5356,INSECT,0,1370,5217,0,0,,,1
5d59b01348766d0016949e6a,0bwidlu9nb,"Mediated Recall_Prolific",1,101,2023-02-23T22:31:42+00:00,4.8147258758545,4,versionB_stim.csv,JOLVersion.csv,JOL,JOL2,PUSH,CLUTTER,Study2,U,41,45,Test,User,-,,Recall,Recall1,4607,POWER,33.333333333333,3831,4289,0,0,,,1
5d59b01348766d0016949e6a,0bwidlu9nb,"Mediated Recall_Prolific",1,102,2023-02-23T22:31:46+00:00,4.0030300617218,4,versionB_stim.csv,JOLVersion.csv,JOL,JOL2,HAPPY,CAR,Study2,U,37,15,Test,User,-,,Recall,Recall1,3824,DELIGHT,0,2743,3608,0,0,,,1
5d59b01348766d0016949e6a,0bwidlu9nb,"Mediated Recall_Prolific",1,103,2023-02-23T22:31:51+00:00,5.2825300693512,4,versionB_stim.csv,JOLVersion.csv,JOL,JOL2,SUMMER,SNOW,Study2,M,6,26,Test,User,-,,Recall,Recall1,4973,SNOW,100,4363,4711,1,1,,,1
5d59b01348766d0016949e6a,0bwidlu9nb,"Mediated Recall_Prolific",1,104,2023-02-23T22:31:56+00:00,4.1775238513947,4,versionB_stim.csv,JOLVersion.csv,JOL,JOL2,ART,WOLF,Study2,U,38,44,Test,User,-,,Recall,Recall1,3842,FRAME,22.222222222222,3132,3711,0,0,,,1
5d59b01348766d0016949e6a,0bwidlu9nb,"Mediated Recall_Prolific",1,105,2023-02-23T22:31:59+00:00,3.0660500526428,4,versionB_stim.csv,JOLVersion.csv,JOL,JOL2,REALITY,ISLAND,Study2,M,9,20,Test,User,-,,Recall,Recall1,2825,SERIES,16.666666666667,2249,2708,0,0,,,1
5d59b01348766d0016949e6a,0bwidlu9nb,"Mediated Recall_Prolific",1,106,2023-02-23T22:32:03+00:00,3.8245279788971,4,versionB_stim.csv,JOLVersion.csv,JOL,JOL2,ARTERY,BRONZE,Study2,U,48,10,Test,User,-,,Recall,Recall1,3647,BLOOD,36.363636363636,2765,3507,0,0,,,1
5d59b01348766d0016949e6a,0bwidlu9nb,"Mediated Recall_Prolific",1,107,2023-02-23T22:32:05+00:00,1.9781529903412,4,versionB_stim.csv,JOLVersion.csv,JOL,JOL2,VALLEY,PEAK,Study2,M,18,12,Test,User,-,,Recall,Recall1,1661,PEAK,100,1194,1464,1,1,,,1
5d59b01348766d0016949e6a,0bwidlu9nb,"Mediated Recall_Prolific",1,108,2023-02-23T22:32:07+00:00,2.6403470039368,4,versionB_stim.csv,JOLVersion.csv,JOL,JOL2,CHOP,CUT,Study2,F,22,38,Test,User,-,,Recall,Recall1,2414,PORK,0,1587,2154,0,0,,,1
5d59b01348766d0016949e6a,0bwidlu9nb,"Mediated Recall_Prolific",1,109,2023-02-23T22:32:19+00:00,11.647843122482,4,versionB_stim.csv,JOLVersion.csv,JOL,JOL2,,,,,,0,Instruct,-,10,"You will now be presented with a new set of word pairs. Please study each pair. Remember that your memory will be tested! When finished, press Enter to move to the next pair.",Initial_Instruct,Instruct4,11338,,,-1,-1,,,,,1
5d59b01348766d0016949e6a,0bwidlu9nb,"Mediated Recall_Prolific",1,110,2023-02-23T22:32:32+00:00,13.285114049911,4,versionB_stim.csv,JOLVersion.csv,JOL,JOL2,,,,,,0,Instruct,,10,"You will again be asked to rate your ability to remember these items using a 0 to 100 scale. Remember to use the full range of the scale!",,Instruct10,12945,,,-1,-1,,,,,0.829
5d59b01348766d0016949e6a,0bwidlu9nb,"Mediated Recall_Prolific",1,111,2023-02-23T22:32:34+00:00,1.9619917869568,4,versionB_stim.csv,JOLVersion.csv,JOL,JOL2,,,,,,0,Instruct,User,-,"Press Enter when you are readty to begin",,Instruct11,1606,,,-1,-1,,,,,1
5d59b01348766d0016949e6a,0bwidlu9nb,"Mediated Recall_Prolific",1,112,2023-02-23T22:32:37+00:00,2.7893090248108,4,versionB_stim.csv,JOLVersion.csv,JOL,JOL2,SHRIMP,FISH,BUFFER4,Buffer,53,55,JOL,User,-,"How likely are you to correctly recall the second item in the pair?|Type your response on a scale from 0-100 and then press Enter.",Study/JOL,BUFFER2,2609,,,2197,2286,,,,50,1
5d59b01348766d0016949e6a,0bwidlu9nb,"Mediated Recall_Prolific",1,113,2023-02-23T22:32:39+00:00,2.4661121368408,4,versionB_stim.csv,JOLVersion.csv,JOL,JOL2,MALT,CHOCOLATE,BUFFER2,Buffer,108,107,JOL,User,-,"How likely are you to correctly recall the second item in the pair?|Type your response on a scale from 0-100 and then press Enter.",Study/JOL,BUFFER2,2270,,,1506,1715,,,,40,1
5d59b01348766d0016949e6a,0bwidlu9nb,"Mediated Recall_Prolific",1,114,2023-02-23T22:32:42+00:00,2.2792408466339,4,versionB_stim.csv,JOLVersion.csv,JOL,JOL2,PEANUT,BUTTER,BUFFER1,Buffer,58,57,JOL,User,-,"How likely are you to correctly recall the second item in the pair?|Type your response on a scale from 0-100 and then press Enter.",Study/JOL,BUFFER2,2098,,,1441,1779,,,,100,1
5d59b01348766d0016949e6a,0bwidlu9nb,"Mediated Recall_Prolific",1,115,2023-02-23T22:32:44+00:00,2.8206610679626,4,versionB_stim.csv,JOLVersion.csv,JOL,JOL2,SHERRIF,POLICE,BUFFER2,Buffer,107,110,JOL,User,-,"How likely are you to correctly recall the second item in the pair?|Type your response on a scale from 0-100 and then press Enter.",Study/JOL,BUFFER2,2638,,,2256,2335,,,,80,1
5d59b01348766d0016949e6a,0bwidlu9nb,"Mediated Recall_Prolific",1,116,2023-02-23T22:32:47+00:00,2.7673580646515,4,versionB_stim.csv,JOLVersion.csv,JOL,JOL2,SPACE,JAM,BUFFER1,Buffer,60,61,JOL,User,-,"How likely are you to correctly recall the second item in the pair?|Type your response on a scale from 0-100 and then press Enter.",Study/JOL,BUFFER2,2569,,,2225,2271,,,,60,1
5d59b01348766d0016949e6a,0bwidlu9nb,"Mediated Recall_Prolific",1,117,2023-02-23T22:32:49+00:00,2.093239068985,4,versionB_stim.csv,JOLVersion.csv,JOL,JOL2,ROOT,PLANT,Study1,F,80,69,JOL,User,-,"How likely are you to correctly recall the second item in the pair?|Type your response on a scale from 0-100 and then press Enter.",Study/JOL,"Study Phase2",1915,,,1512,1581,,,,90,1
5d59b01348766d0016949e6a,0bwidlu9nb,"Mediated Recall_Prolific",1,118,2023-02-23T22:33:05+00:00,15.702360868454,4,versionB_stim.csv,JOLVersion.csv,JOL,JOL2,BEACH,BOX,Study1,M,62,75,JOL,User,-,"How likely are you to correctly recall the second item in the pair?|Type your response on a scale from 0-100 and then press Enter.",Study/JOL,"Study Phase2",15377,,,15034,15099,,,,20,1
5d59b01348766d0016949e6a,0bwidlu9nb,"Mediated Recall_Prolific",1,119,2023-02-23T22:33:07+00:00,2.0944640636444,4,versionB_stim.csv,JOLVersion.csv,JOL,JOL2,WORD,SENTENCE,Study1,F,82,86,JOL,User,-,"How likely are you to correctly recall the second item in the pair?|Type your response on a scale from 0-100 and then press Enter.",Study/JOL,"Study Phase2",1901,,,1598,1675,,,,60,1
5d59b01348766d0016949e6a,0bwidlu9nb,"Mediated Recall_Prolific",1,120,2023-02-23T22:33:09+00:00,1.8354399204254,4,versionB_stim.csv,JOLVersion.csv,JOL,JOL2,VEHICLE,CHARM,Study1,U,95,71,JOL,User,-,"How likely are you to correctly recall the second item in the pair?|Type your response on a scale from 0-100 and then press Enter.",Study/JOL,"Study Phase2",1652,,,1314,1379,,,,10,1
5d59b01348766d0016949e6a,0bwidlu9nb,"Mediated Recall_Prolific",1,121,2023-02-23T22:33:11+00:00,2.2303669452667,4,versionB_stim.csv,JOLVersion.csv,JOL,JOL2,FUZZY,BANG,Study1,U,105,65,JOL,User,-,"How likely are you to correctly recall the second item in the pair?|Type your response on a scale from 0-100 and then press Enter.",Study/JOL,"Study Phase2",2041,,,1803,1804,,,,0,1
5d59b01348766d0016949e6a,0bwidlu9nb,"Mediated Recall_Prolific",1,122,2023-02-23T22:33:14+00:00,2.4024410247803,4,versionB_stim.csv,JOLVersion.csv,JOL,JOL2,HYGIENE,CLEAN,Study1,F,83,84,JOL,User,-,"How likely are you to correctly recall the second item in the pair?|Type your response on a scale from 0-100 and then press Enter.",Study/JOL,"Study Phase2",2208,,,1785,1888,,,,70,1
5d59b01348766d0016949e6a,0bwidlu9nb,"Mediated Recall_Prolific",1,123,2023-02-23T22:33:16+00:00,2.1153810024261,4,versionB_stim.csv,JOLVersion.csv,JOL,JOL2,SIP,DRINK,Study1,F,87,102,JOL,User,-,"How likely are you to correctly recall the second item in the pair?|Type your response on a scale from 0-100 and then press Enter.",Study/JOL,"Study Phase2",1936,,,1322,1638,,,,85,1
5d59b01348766d0016949e6a,0bwidlu9nb,"Mediated Recall_Prolific",1,124,2023-02-23T22:33:17+00:00,1.6860840320587,4,versionB_stim.csv,JOLVersion.csv,JOL,JOL2,SWAN,BIRD,Study1,F,81,95,JOL,User,-,"How likely are you to correctly recall the second item in the pair?|Type your response on a scale from 0-100 and then press Enter.",Study/JOL,"Study Phase2",1515,,,1158,1264,,,,90,1
5d59b01348766d0016949e6a,0bwidlu9nb,"Mediated Recall_Prolific",1,125,2023-02-23T22:33:20+00:00,2.8612661361694,4,versionB_stim.csv,JOLVersion.csv,JOL,JOL2,SOON,BELT,Study1,U,101,87,JOL,User,-,"How likely are you to correctly recall the second item in the pair?|Type your response on a scale from 0-100 and then press Enter.",Study/JOL,"Study Phase2",2686,,,2137,2409,,,,15,1
5d59b01348766d0016949e6a,0bwidlu9nb,"Mediated Recall_Prolific",1,126,2023-02-23T22:33:23+00:00,2.8182818889618,4,versionB_stim.csv,JOLVersion.csv,JOL,JOL2,LION,STRIPES,Study1,M,61,90,JOL,User,-,"How likely are you to correctly recall the second item in the pair?|Type your response on a scale from 0-100 and then press Enter.",Study/JOL,"Study Phase2",2622,,,1824,2074,,,,60,1
5d59b01348766d0016949e6a,0bwidlu9nb,"Mediated Recall_Prolific",1,127,2023-02-23T22:33:26+00:00,2.8152000904083,4,versionB_stim.csv,JOLVersion.csv,JOL,JOL2,MIRROR,MAROON,Study1,U,91,91,JOL,User,-,"How likely are you to correctly recall the second item in the pair?|Type your response on a scale from 0-100 and then press Enter.",Study/JOL,"Study Phase2",2626,,,2260,2353,,,,40,1
5d59b01348766d0016949e6a,0bwidlu9nb,"Mediated Recall_Prolific",1,128,2023-02-23T22:33:33+00:00,6.9399778842926,4,versionB_stim.csv,JOLVersion.csv,JOL,JOL2,HARD,COTTON,Study1,M,75,66,JOL,User,-,"How likely are you to correctly recall the second item in the pair?|Type your response on a scale from 0-100 and then press Enter.",Study/JOL,"Study Phase2",6624,,,4709,5731,,,,15,1
5d59b01348766d0016949e6a,0bwidlu9nb,"Mediated Recall_Prolific",1,129,2023-02-23T22:33:35+00:00,2.4081349372864,4,versionB_stim.csv,JOLVersion.csv,JOL,JOL2,DAY,DARK,Study1,M,73,70,JOL,User,-,"How likely are you to correctly recall the second item in the pair?|Type your response on a scale from 0-100 and then press Enter.",Study/JOL,"Study Phase2",2087,,,1409,1499,,,,20,1
5d59b01348766d0016949e6a,0bwidlu9nb,"Mediated Recall_Prolific",1,130,2023-02-23T22:33:38+00:00,2.5886960029602,4,versionB_stim.csv,JOLVersion.csv,JOL,JOL2,GIVE,STEAK,Study1,U,93,77,JOL,User,-,"How likely are you to correctly recall the second item in the pair?|Type your response on a scale from 0-100 and then press Enter.",Study/JOL,"Study Phase2",2405,,,2000,2148,,,,40,1
5d59b01348766d0016949e6a,0bwidlu9nb,"Mediated Recall_Prolific",1,131,2023-02-23T22:33:44+00:00,6.1794421672821,4,versionB_stim.csv,JOLVersion.csv,JOL,JOL2,STRETCH,CLOTH,Study1,U,92,67,JOL,User,-,"How likely are you to correctly recall the second item in the pair?|Type your response on a scale from 0-100 and then press Enter.",Study/JOL,"Study Phase2",5815,,,5480,5530,,,,60,1
5d59b01348766d0016949e6a,0bwidlu9nb,"Mediated Recall_Prolific",1,132,2023-02-23T22:33:47+00:00,2.5753219127655,4,versionB_stim.csv,JOLVersion.csv,JOL,JOL2,TEMPERATURE,MORNING,Study1,U,103,92,JOL,User,-,"How likely are you to correctly recall the second item in the pair?|Type your response on a scale from 0-100 and then press Enter.",Study/JOL,"Study Phase2",2392,,,2004,2098,,,,50,1
5d59b01348766d0016949e6a,0bwidlu9nb,"Mediated Recall_Prolific",1,133,2023-02-23T22:33:48+00:00,1.9431369304657,4,versionB_stim.csv,JOLVersion.csv,JOL,JOL2,ORCHID,FLOWER,Study1,F,89,97,JOL,User,-,"How likely are you to correctly recall the second item in the pair?|Type your response on a scale from 0-100 and then press Enter.",Study/JOL,"Study Phase2",1758,,,1282,1347,,,,80,1
5d59b01348766d0016949e6a,0bwidlu9nb,"Mediated Recall_Prolific",1,134,2023-02-23T22:33:51+00:00,2.6214201450348,4,versionB_stim.csv,JOLVersion.csv,JOL,JOL2,HORSE,WHEEL,Study1,M,69,82,JOL,User,-,"How likely are you to correctly recall the second item in the pair?|Type your response on a scale from 0-100 and then press Enter.",Study/JOL,"Study Phase2",2444,,,2134,2180,,,,50,1
5d59b01348766d0016949e6a,0bwidlu9nb,"Mediated Recall_Prolific",1,135,2023-02-23T22:33:57+00:00,6.0711698532104,4,versionB_stim.csv,JOLVersion.csv,JOL,JOL2,ROUGH,SILK,Study1,M,65,63,JOL,User,-,"How likely are you to correctly recall the second item in the pair?|Type your response on a scale from 0-100 and then press Enter.",Study/JOL,"Study Phase2",5729,,,5414,5470,,,,20,1
5d59b01348766d0016949e6a,0bwidlu9nb,"Mediated Recall_Prolific",1,136,2023-02-23T22:33:59+00:00,2.0771341323853,4,versionB_stim.csv,JOLVersion.csv,JOL,JOL2,WAGE,MONEY,Study1,F,77,68,JOL,User,-,"How likely are you to correctly recall the second item in the pair?|Type your response on a scale from 0-100 and then press Enter.",Study/JOL,"Study Phase2",1886,,,1090,1173,,,,60,1
5d59b01348766d0016949e6a,0bwidlu9nb,"Mediated Recall_Prolific",1,137,2023-02-23T22:34:01+00:00,1.7835378646851,4,versionB_stim.csv,JOLVersion.csv,JOL,JOL2,SCALP,HEAD,Study1,F,78,104,JOL,User,-,"How likely are you to correctly recall the second item in the pair?|Type your response on a scale from 0-100 and then press Enter.",Study/JOL,"Study Phase2",1590,,,1245,1315,,,,90,1
5d59b01348766d0016949e6a,0bwidlu9nb,"Mediated Recall_Prolific",1,138,2023-02-23T22:34:03+00:00,1.8029429912567,4,versionB_stim.csv,JOLVersion.csv,JOL,JOL2,MEAT,KEYS,Study1,U,96,96,JOL,User,-,"How likely are you to correctly recall the second item in the pair?|Type your response on a scale from 0-100 and then press Enter.",Study/JOL,"Study Phase2",1620,,,1273,1346,,,,10,1
5d59b01348766d0016949e6a,0bwidlu9nb,"Mediated Recall_Prolific",1,139,2023-02-23T22:34:05+00:00,2.5094120502472,4,versionB_stim.csv,JOLVersion.csv,JOL,JOL2,CRY,BOTTLE,Study1,M,71,81,JOL,User,-,"How likely are you to correctly recall the second item in the pair?|Type your response on a scale from 0-100 and then press Enter.",Study/JOL,"Study Phase2",2151,,,1696,1834,,,,15,1
5d59b01348766d0016949e6a,0bwidlu9nb,"Mediated Recall_Prolific",1,140,2023-02-23T22:34:07+00:00,2.1155490875244,4,versionB_stim.csv,JOLVersion.csv,JOL,JOL2,BIRTHDAY,PIE,Study1,M,64,73,JOL,User,-,"How likely are you to correctly recall the second item in the pair?|Type your response on a scale from 0-100 and then press Enter.",Study/JOL,"Study Phase2",1883,,,1344,1580,,,,25,1
5d59b01348766d0016949e6a,0bwidlu9nb,"Mediated Recall_Prolific",1,141,2023-02-23T22:34:10+00:00,2.1975779533386,4,versionB_stim.csv,JOLVersion.csv,JOL,JOL2,CREDIT,CARD,Study1,F,88,99,JOL,User,-,"How likely are you to correctly recall the second item in the pair?|Type your response on a scale from 0-100 and then press Enter.",Study/JOL,"Study Phase2",1989,,,1425,1576,,,,60,1
5d59b01348766d0016949e6a,0bwidlu9nb,"Mediated Recall_Prolific",1,142,2023-02-23T22:34:12+00:00,2.3106019496918,4,versionB_stim.csv,JOLVersion.csv,JOL,JOL2,AFFECTION,LOVE,Study1,F,86,74,JOL,User,-,"How likely are you to correctly recall the second item in the pair?|Type your response on a scale from 0-100 and then press Enter.",Study/JOL,"Study Phase2",2084,,,1662,1763,,,,95,1
5d59b01348766d0016949e6a,0bwidlu9nb,"Mediated Recall_Prolific",1,143,2023-02-23T22:34:15+00:00,3.0084550380707,4,versionB_stim.csv,JOLVersion.csv,JOL,JOL2,MAZE,PHONE,Study1,U,97,79,JOL,User,-,"How likely are you to correctly recall the second item in the pair?|Type your response on a scale from 0-100 and then press Enter.",Study/JOL,"Study Phase2",2834,,,2548,2548,,,,5,1
5d59b01348766d0016949e6a,0bwidlu9nb,"Mediated Recall_Prolific",1,144,2023-02-23T22:34:17+00:00,2.0224409103394,4,versionB_stim.csv,JOLVersion.csv,JOL,JOL2,KEYS,ROD,Study1,U,100,93,JOL,User,-,"How likely are you to correctly recall the second item in the pair?|Type your response on a scale from 0-100 and then press Enter.",Study/JOL,"Study Phase2",1842,,,1483,1573,,,,10,1
5d59b01348766d0016949e6a,0bwidlu9nb,"Mediated Recall_Prolific",1,145,2023-02-23T22:34:20+00:00,3.2578670978546,4,versionB_stim.csv,JOLVersion.csv,JOL,JOL2,NAP,SLEEP,Study1,F,84,89,JOL,User,-,"How likely are you to correctly recall the second item in the pair?|Type your response on a scale from 0-100 and then press Enter.",Study/JOL,"Study Phase2",3052,,,2655,2769,,,,20,1
5d59b01348766d0016949e6a,0bwidlu9nb,"Mediated Recall_Prolific",1,146,2023-02-23T22:34:23+00:00,3.0982041358948,4,versionB_stim.csv,JOLVersion.csv,JOL,JOL2,WEDDING,FINGER,Study1,M,72,83,JOL,User,-,"How likely are you to correctly recall the second item in the pair?|Type your response on a scale from 0-100 and then press Enter.",Study/JOL,"Study Phase2",2890,,,2447,2517,,,,50,1
5d59b01348766d0016949e6a,0bwidlu9nb,"Mediated Recall_Prolific",1,147,2023-02-23T22:34:42+00:00,18.226742982864,4,versionB_stim.csv,JOLVersion.csv,JOL,JOL2,WAR,QUIET,Study1,M,63,98,JOL,User,-,"How likely are you to correctly recall the second item in the pair?|Type your response on a scale from 0-100 and then press Enter.",Study/JOL,"Study Phase2",17867,,,17089,17419,,,,20,1
5d59b01348766d0016949e6a,0bwidlu9nb,"Mediated Recall_Prolific",1,148,2023-02-23T22:34:44+00:00,2.4719088077545,4,versionB_stim.csv,JOLVersion.csv,JOL,JOL2,SHELL,SHAKE,Study1,U,98,94,JOL,User,-,"How likely are you to correctly recall the second item in the pair?|Type your response on a scale from 0-100 and then press Enter.",Study/JOL,"Study Phase2",2093,,,1214,1373,,,,10,1
5d59b01348766d0016949e6a,0bwidlu9nb,"Mediated Recall_Prolific",1,149,2023-02-23T22:34:50+00:00,6.1663951873779,4,versionB_stim.csv,JOLVersion.csv,JOL,JOL2,BAT,BOUNCE,Study1,M,67,64,JOL,User,-,"How likely are you to correctly recall the second item in the pair?|Type your response on a scale from 0-100 and then press Enter.",Study/JOL,"Study Phase2",5836,,,5479,5479,,,,0,1
5d59b01348766d0016949e6a,0bwidlu9nb,"Mediated Recall_Prolific",1,150,2023-02-23T22:34:53+00:00,2.6369559764862,4,versionB_stim.csv,JOLVersion.csv,JOL,JOL2,LISTEN,FICTION,Study1,U,99,105,JOL,User,-,"How likely are you to correctly recall the second item in the pair?|Type your response on a scale from 0-100 and then press Enter.",Study/JOL,"Study Phase2",2420,,,1687,1909,,,,35,1
5d59b01348766d0016949e6a,0bwidlu9nb,"Mediated Recall_Prolific",1,151,2023-02-23T22:34:55+00:00,1.9704489707947,4,versionB_stim.csv,JOLVersion.csv,JOL,JOL2,TREE,SYRUP,Study1,M,66,76,JOL,User,-,"How likely are you to correctly recall the second item in the pair?|Type your response on a scale from 0-100 and then press Enter.",Study/JOL,"Study Phase2",1750,,,1339,1502,,,,60,1
5d59b01348766d0016949e6a,0bwidlu9nb,"Mediated Recall_Prolific",1,152,2023-02-23T22:34:57+00:00,1.947527885437,4,versionB_stim.csv,JOLVersion.csv,JOL,JOL2,CAKE,HAND,Study1,U,104,80,JOL,User,-,"How likely are you to correctly recall the second item in the pair?|Type your response on a scale from 0-100 and then press Enter.",Study/JOL,"Study Phase2",1742,,,1294,1428,,,,15,1
5d59b01348766d0016949e6a,0bwidlu9nb,"Mediated Recall_Prolific",1,153,2023-02-23T22:34:59+00:00,1.9344689846039,4,versionB_stim.csv,JOLVersion.csv,JOL,JOL2,TOOTH,HAIR,Study1,M,74,101,JOL,User,-,"How likely are you to correctly recall the second item in the pair?|Type your response on a scale from 0-100 and then press Enter.",Study/JOL,"Study Phase2",1736,,,1339,1411,,,,10,1
5d59b01348766d0016949e6a,0bwidlu9nb,"Mediated Recall_Prolific",1,154,2023-02-23T22:35:01+00:00,1.8847241401672,4,versionB_stim.csv,JOLVersion.csv,JOL,JOL2,TUNA,FISH,Study1,F,90,100,JOL,User,-,"How likely are you to correctly recall the second item in the pair?|Type your response on a scale from 0-100 and then press Enter.",Study/JOL,"Study Phase2",1701,,,1284,1433,,,,80,1
5d59b01348766d0016949e6a,0bwidlu9nb,"Mediated Recall_Prolific",1,155,2023-02-23T22:35:03+00:00,2.9153280258179,4,versionB_stim.csv,JOLVersion.csv,JOL,JOL2,CIRCLE,DANCE,Study1,M,68,106,JOL,User,-,"How likely are you to correctly recall the second item in the pair?|Type your response on a scale from 0-100 and then press Enter.",Study/JOL,"Study Phase2",2730,,,1936,2371,,,,80,1
5d59b01348766d0016949e6a,0bwidlu9nb,"Mediated Recall_Prolific",1,156,2023-02-23T22:35:06+00:00,2.4589478969574,4,versionB_stim.csv,JOLVersion.csv,JOL,JOL2,LITTER,TRASH,Study1,F,76,85,JOL,User,-,"How likely are you to correctly recall the second item in the pair?|Type your response on a scale from 0-100 and then press Enter.",Study/JOL,"Study Phase2",2135,,,1445,1685,,,,50,1
5d59b01348766d0016949e6a,0bwidlu9nb,"Mediated Recall_Prolific",1,157,2023-02-23T22:35:08+00:00,2.3657751083374,4,versionB_stim.csv,JOLVersion.csv,JOL,JOL2,MULE,DONKEY,Study1,F,85,62,JOL,User,-,"How likely are you to correctly recall the second item in the pair?|Type your response on a scale from 0-100 and then press Enter.",Study/JOL,"Study Phase2",2157,,,1515,1728,,,,50,1
5d59b01348766d0016949e6a,0bwidlu9nb,"Mediated Recall_Prolific",1,158,2023-02-23T22:35:11+00:00,2.6022939682007,4,versionB_stim.csv,JOLVersion.csv,JOL,JOL2,CRACKLE,ELECTION,Study1,U,94,72,JOL,User,-,"How likely are you to correctly recall the second item in the pair?|Type your response on a scale from 0-100 and then press Enter.",Study/JOL,"Study Phase2",2273,,,1954,1954,,,,0,1
5d59b01348766d0016949e6a,0bwidlu9nb,"Mediated Recall_Prolific",1,159,2023-02-23T22:35:13+00:00,1.9077548980713,4,versionB_stim.csv,JOLVersion.csv,JOL,JOL2,CEILING,CARPET,Study1,M,70,78,JOL,User,-,"How likely are you to correctly recall the second item in the pair?|Type your response on a scale from 0-100 and then press Enter.",Study/JOL,"Study Phase2",1723,,,1236,1457,,,,10,1
5d59b01348766d0016949e6a,0bwidlu9nb,"Mediated Recall_Prolific",1,160,2023-02-23T22:35:16+00:00,2.8336851596832,4,versionB_stim.csv,JOLVersion.csv,JOL,JOL2,SIGN,TICK,Study1,U,102,103,JOL,User,-,"How likely are you to correctly recall the second item in the pair?|Type your response on a scale from 0-100 and then press Enter.",Study/JOL,"Study Phase2",2639,,,2203,2401,,,,50,1
5d59b01348766d0016949e6a,0bwidlu9nb,"Mediated Recall_Prolific",1,161,2023-02-23T22:35:18+00:00,2.512268781662,4,versionB_stim.csv,JOLVersion.csv,JOL,JOL2,MULE,DONKEY,Study1,F,79,88,JOL,User,-,"How likely are you to correctly recall the second item in the pair?|Type your response on a scale from 0-100 and then press Enter.",Study/JOL,"Study Phase2",2330,,,1860,2016,,,,60,1
5d59b01348766d0016949e6a,0bwidlu9nb,"Mediated Recall_Prolific",1,162,2023-02-23T22:35:21+00:00,2.3571331501007,4,versionB_stim.csv,JOLVersion.csv,JOL,JOL2,TREES,GREEN,BUFFER1,Buffer,56,58,JOL,User,-,"How likely are you to correctly recall the second item in the pair?|Type your response on a scale from 0-100 and then press Enter.",Study/JOL,BUFFER2,2179,,,1733,1939,,,,80,1
5d59b01348766d0016949e6a,0bwidlu9nb,"Mediated Recall_Prolific",1,163,2023-02-23T22:35:23+00:00,2.4286458492279,4,versionB_stim.csv,JOLVersion.csv,JOL,JOL2,PITCHER,CATCHER,BUFFER1,Buffer,57,60,JOL,User,-,"How likely are you to correctly recall the second item in the pair?|Type your response on a scale from 0-100 and then press Enter.",Study/JOL,BUFFER2,2218,,,1409,1808,,,,75,1
5d59b01348766d0016949e6a,0bwidlu9nb,"Mediated Recall_Prolific",1,164,2023-02-23T22:35:42+00:00,19.232355117798,4,versionB_stim.csv,JOLVersion.csv,JOL,JOL2,ICE,FROZEN,BUFFER4,Buffer,54,53,JOL,User,-,"How likely are you to correctly recall the second item in the pair?|Type your response on a scale from 0-100 and then press Enter.",Study/JOL,BUFFER2,18904,,,18422,18632,,,,60,1
5d59b01348766d0016949e6a,0bwidlu9nb,"Mediated Recall_Prolific",1,165,2023-02-23T22:35:45+00:00,3.109904050827,4,versionB_stim.csv,JOLVersion.csv,JOL,JOL2,THING,STUFF,BUFFER2,Buffer,110,108,JOL,User,-,"How likely are you to correctly recall the second item in the pair?|Type your response on a scale from 0-100 and then press Enter.",Study/JOL,BUFFER2,2780,,,2416,2495,,,,50,1
5d59b01348766d0016949e6a,0bwidlu9nb,"Mediated Recall_Prolific",1,166,2023-02-23T22:35:48+00:00,2.350821018219,4,versionB_stim.csv,JOLVersion.csv,JOL,JOL2,GEESE,GOOSE,BUFFER2,Buffer,106,109,JOL,User,-,"How likely are you to correctly recall the second item in the pair?|Type your response on a scale from 0-100 and then press Enter.",Study/JOL,BUFFER2,2011,,,1555,1686,,,,90,1
5d59b01348766d0016949e6a,0bwidlu9nb,"Mediated Recall_Prolific",1,167,2023-02-23T22:35:49+00:00,1.7001969814301,4,versionB_stim.csv,JOLVersion.csv,JOL,JOL2,,,,,,0,Instruct,User,-,"You have completed this section. Please press Enter.",Filler_Instruction,Instruct2,1464,,,-1,-1,,,,,1
5d59b01348766d0016949e6a,0bwidlu9nb,"Mediated Recall_Prolific",1,168,2023-02-23T22:37:50+00:00,120.34550094604,4,versionB_stim.csv,JOLVersion.csv,JOL,JOL2,,,,,,0,FreeRecall,120,120,"Please list the 50 US states in alphabetical order. The task will automatically advance to the next screen after two minutes.",,Filler1,120011,"Alabama Alaska Arizona Arkansas California Colorado Connecticut Delaware Florida Georgia Hawaii Idaho Illinois Indiana Iowa Kansas Kentucky Louisiana Maine M",0,6853,51697,0,0,,,1
5d59b01348766d0016949e6a,0bwidlu9nb,"Mediated Recall_Prolific",1,169,2023-02-23T22:38:01+00:00,10.970913887024,4,versionB_stim.csv,JOLVersion.csv,JOL,JOL2,,,,,,0,Instruct,-,10,"You will now be presented with the first word from each of the previously studied item pairs. Please type the missing word. If you do not know the word, you may guess or press Enter to skip forward to the next pair.",,Instruct3,10602,,,-1,-1,,,,,1
5d59b01348766d0016949e6a,0bwidlu9nb,"Mediated Recall_Prolific",1,170,2023-02-23T22:38:08+00:00,7.1366682052612,4,versionB_stim.csv,JOLVersion.csv,JOL,JOL2,STRETCH,CLOTH,Study1,U,92,67,Test,User,-,,Recall,Recall2,6819,MUSCLE,36.363636363636,4623,6703,0,0,,,1
5d59b01348766d0016949e6a,0bwidlu9nb,"Mediated Recall_Prolific",1,171,2023-02-23T22:38:12+00:00,4.4322497844696,4,versionB_stim.csv,JOLVersion.csv,JOL,JOL2,SIGN,TICK,Study1,U,102,103,Test,User,-,,Recall,Recall2,4248,POST,25,3694,4087,0,0,,,1
5d59b01348766d0016949e6a,0bwidlu9nb,"Mediated Recall_Prolific",1,172,2023-02-23T22:38:14+00:00,2.1700382232666,4,versionB_stim.csv,JOLVersion.csv,JOL,JOL2,MULE,DONKEY,Study1,F,79,88,Test,User,-,,Recall,Recall2,1936,DONKEY,100,1212,1843,1,1,,,1
5d59b01348766d0016949e6a,0bwidlu9nb,"Mediated Recall_Prolific",1,173,2023-02-23T22:38:16+00:00,1.9350888729095,4,versionB_stim.csv,JOLVersion.csv,JOL,JOL2,AFFECTION,LOVE,Study1,F,86,74,Test,User,-,,Recall,Recall2,1750,LOVE,100,1199,1635,1,1,,,1
5d59b01348766d0016949e6a,0bwidlu9nb,"Mediated Recall_Prolific",1,174,2023-02-23T22:38:20+00:00,4.0977289676666,4,versionB_stim.csv,JOLVersion.csv,JOL,JOL2,MEAT,KEYS,Study1,U,96,96,Test,User,-,,Recall,Recall2,3892,PROTEIN,18.181818181818,2982,3719,0,0,,,1
5d59b01348766d0016949e6a,0bwidlu9nb,"Mediated Recall_Prolific",1,175,2023-02-23T22:38:23+00:00,2.2860231399536,4,versionB_stim.csv,JOLVersion.csv,JOL,JOL2,CEILING,CARPET,Study1,M,70,78,Test,User,-,,Recall,Recall2,2106,CARPET,100,1435,1941,1,1,,,1
5d59b01348766d0016949e6a,0bwidlu9nb,"Mediated Recall_Prolific",1,176,2023-02-23T22:38:25+00:00,2.3968758583069,4,versionB_stim.csv,JOLVersion.csv,JOL,JOL2,CRY,BOTTLE,Study1,M,71,81,Test,User,-,,Recall,Recall2,2194,TEAR,40,1586,1858,0,0,,,1
5d59b01348766d0016949e6a,0bwidlu9nb,"Mediated Recall_Prolific",1,177,2023-02-23T22:38:27+00:00,2.2653610706329,4,versionB_stim.csv,JOLVersion.csv,JOL,JOL2,ORCHID,FLOWER,Study1,F,89,97,Test,User,-,,Recall,Recall2,2087,FLOWER,100,971,1997,1,1,,,1
5d59b01348766d0016949e6a,0bwidlu9nb,"Mediated Recall_Prolific",1,178,2023-02-23T22:38:30+00:00,2.8546030521393,4,versionB_stim.csv,JOLVersion.csv,JOL,JOL2,WAR,QUIET,Study1,M,63,98,Test,User,-,,Recall,Recall2,2676,FIGHT,40,1553,2518,0,0,,,1
5d59b01348766d0016949e6a,0bwidlu9nb,"Mediated Recall_Prolific",1,179,2023-02-23T22:38:38+00:00,7.4124410152435,4,versionB_stim.csv,JOLVersion.csv,JOL,JOL2,CRACKLE,ELECTION,Study1,U,94,72,Test,User,-,,Recall,Recall2,7064,KNUCKLE,26.666666666667,4086,6894,0,0,,,1
5d59b01348766d0016949e6a,0bwidlu9nb,"Mediated Recall_Prolific",1,180,2023-02-23T22:38:40+00:00,2.8258609771729,4,versionB_stim.csv,JOLVersion.csv,JOL,JOL2,MULE,DONKEY,Study1,F,85,62,Test,User,-,,Recall,Recall2,2509,DONKEY,100,1052,2396,1,1,,,1
5d59b01348766d0016949e6a,0bwidlu9nb,"Mediated Recall_Prolific",1,181,2023-02-23T22:38:43+00:00,2.2299628257751,4,versionB_stim.csv,JOLVersion.csv,JOL,JOL2,SHELL,SHAKE,Study1,U,98,94,Test,User,-,,Recall,Recall2,2031,POINT,0,1304,1905,0,0,,,1
5d59b01348766d0016949e6a,0bwidlu9nb,"Mediated Recall_Prolific",1,182,2023-02-23T22:38:48+00:00,5.5259330272675,4,versionB_stim.csv,JOLVersion.csv,JOL,JOL2,CIRCLE,DANCE,Study1,M,68,106,Test,User,-,,Recall,Recall2,5179,DANCE,100,4719,5115,1,1,,,1
5d59b01348766d0016949e6a,0bwidlu9nb,"Mediated Recall_Prolific",1,183,2023-02-23T22:38:51+00:00,2.3700680732727,4,versionB_stim.csv,JOLVersion.csv,JOL,JOL2,WAGE,MONEY,Study1,F,77,68,Test,User,-,,Recall,Recall2,2045,EARN,22.222222222222,1525,1797,0,0,,,1
5d59b01348766d0016949e6a,0bwidlu9nb,"Mediated Recall_Prolific",1,184,2023-02-23T22:38:53+00:00,2.0604960918427,4,versionB_stim.csv,JOLVersion.csv,JOL,JOL2,BEACH,BOX,Study1,M,62,75,Test,User,-,,Recall,Recall2,1668,TIDE,0,1143,1599,0,0,,,1
5d59b01348766d0016949e6a,0bwidlu9nb,"Mediated Recall_Prolific",1,185,2023-02-23T22:38:56+00:00,3.0398168563843,4,versionB_stim.csv,JOLVersion.csv,JOL,JOL2,HYGIENE,CLEAN,Study1,F,83,84,Test,User,-,,Recall,Recall2,2856,CLEAN,100,1464,2632,1,1,,,1
5d59b01348766d0016949e6a,0bwidlu9nb,"Mediated Recall_Prolific",1,186,2023-02-23T22:39:00+00:00,3.909765958786,4,versionB_stim.csv,JOLVersion.csv,JOL,JOL2,DAY,DARK,Study1,M,73,70,Test,User,-,,Recall,Recall2,3719,DARK,100,3150,3498,1,1,,,1
5d59b01348766d0016949e6a,0bwidlu9nb,"Mediated Recall_Prolific",1,187,2023-02-23T22:39:01+00:00,1.7273590564728,4,versionB_stim.csv,JOLVersion.csv,JOL,JOL2,TUNA,FISH,Study1,F,90,100,Test,User,-,,Recall,Recall2,1546,FISH,100,889,1312,1,1,,,1
5d59b01348766d0016949e6a,0bwidlu9nb,"Mediated Recall_Prolific",1,188,2023-02-23T22:39:06+00:00,4.2678160667419,4,versionB_stim.csv,JOLVersion.csv,JOL,JOL2,HORSE,WHEEL,Study1,M,69,82,Test,User,-,,Recall,Recall2,4091,SIGN,0,3388,3765,0,0,,,1
5d59b01348766d0016949e6a,0bwidlu9nb,"Mediated Recall_Prolific",1,189,2023-02-23T22:39:11+00:00,5.7396960258484,4,versionB_stim.csv,JOLVersion.csv,JOL,JOL2,MIRROR,MAROON,Study1,U,91,91,Test,User,-,,Recall,Recall2,5431,PERSON,50,4749,5261,0,0,,,1
5d59b01348766d0016949e6a,0bwidlu9nb,"Mediated Recall_Prolific",1,190,2023-02-23T22:39:14+00:00,3.0199160575867,4,versionB_stim.csv,JOLVersion.csv,JOL,JOL2,CAKE,HAND,Study1,U,104,80,Test,User,-,,Recall,Recall2,2806,FLAVOR,20,2079,2699,0,0,,,1
5d59b01348766d0016949e6a,0bwidlu9nb,"Mediated Recall_Prolific",1,191,2023-02-23T22:39:17+00:00,2.3474559783936,4,versionB_stim.csv,JOLVersion.csv,JOL,JOL2,LION,STRIPES,Study1,M,61,90,Test,User,-,,Recall,Recall2,2159,STRIPE,92.307692307692,1286,2017,0,1,,,1
5d59b01348766d0016949e6a,0bwidlu9nb,"Mediated Recall_Prolific",1,192,2023-02-23T22:39:19+00:00,2.5690848827362,4,versionB_stim.csv,JOLVersion.csv,JOL,JOL2,VEHICLE,CHARM,Study1,U,95,71,Test,User,-,,Recall,Recall2,2375,PASS,22.222222222222,1940,2293,0,0,,,1
5d59b01348766d0016949e6a,0bwidlu9nb,"Mediated Recall_Prolific",1,193,2023-02-23T22:39:22+00:00,2.5491189956665,4,versionB_stim.csv,JOLVersion.csv,JOL,JOL2,ROUGH,SILK,Study1,M,65,63,Test,User,-,,Recall,Recall2,2326,TOUGH,0,1432,2112,0,0,,,1
5d59b01348766d0016949e6a,0bwidlu9nb,"Mediated Recall_Prolific",1,194,2023-02-23T22:39:24+00:00,2.2448301315308,4,versionB_stim.csv,JOLVersion.csv,JOL,JOL2,TREE,SYRUP,Study1,M,66,76,Test,User,-,,Recall,Recall2,2056,GREEN,20,1164,1775,0,0,,,1
5d59b01348766d0016949e6a,0bwidlu9nb,"Mediated Recall_Prolific",1,195,2023-02-23T22:39:26+00:00,1.725005865097,4,versionB_stim.csv,JOLVersion.csv,JOL,JOL2,WEDDING,FINGER,Study1,M,72,83,Test,User,-,,Recall,Recall2,1554,CAKE,20,1137,1459,0,0,,,1
5d59b01348766d0016949e6a,0bwidlu9nb,"Mediated Recall_Prolific",1,196,2023-02-23T22:39:28+00:00,1.9990129470825,4,versionB_stim.csv,JOLVersion.csv,JOL,JOL2,LISTEN,FICTION,Study1,U,99,105,Test,User,-,,Recall,Recall2,1808,EAR,0,1212,1363,0,0,,,1
5d59b01348766d0016949e6a,0bwidlu9nb,"Mediated Recall_Prolific",1,197,2023-02-23T22:39:31+00:00,2.8068130016327,4,versionB_stim.csv,JOLVersion.csv,JOL,JOL2,WORD,SENTENCE,Study1,F,82,86,Test,User,-,,Recall,Recall2,2588,PLACE,30.769230769231,2107,2492,0,0,,,1
5d59b01348766d0016949e6a,0bwidlu9nb,"Mediated Recall_Prolific",1,198,2023-02-23T22:39:33+00:00,2.5050292015076,4,versionB_stim.csv,JOLVersion.csv,JOL,JOL2,SIP,DRINK,Study1,F,87,102,Test,User,-,,Recall,Recall2,2325,DRINK,100,1678,2139,1,1,,,1
5d59b01348766d0016949e6a,0bwidlu9nb,"Mediated Recall_Prolific",1,199,2023-02-23T22:39:35+00:00,1.8833849430084,4,versionB_stim.csv,JOLVersion.csv,JOL,JOL2,SCALP,HEAD,Study1,F,78,104,Test,User,-,,Recall,Recall2,1656,HEAD,100,1179,1513,1,1,,,1
5d59b01348766d0016949e6a,0bwidlu9nb,"Mediated Recall_Prolific",1,200,2023-02-23T22:39:38+00:00,3.0809500217438,4,versionB_stim.csv,JOLVersion.csv,JOL,JOL2,MAZE,PHONE,Study1,U,97,79,Test,User,-,,Recall,Recall2,2896,CORN,44.444444444444,2175,2679,0,0,,,1
5d59b01348766d0016949e6a,0bwidlu9nb,"Mediated Recall_Prolific",1,201,2023-02-23T22:39:40+00:00,2.2046639919281,4,versionB_stim.csv,JOLVersion.csv,JOL,JOL2,BAT,BOUNCE,Study1,M,67,64,Test,User,-,,Recall,Recall2,2022,FLY,0,1565,1851,0,0,,,1
5d59b01348766d0016949e6a,0bwidlu9nb,"Mediated Recall_Prolific",1,202,2023-02-23T22:39:42+00:00,1.8139669895172,4,versionB_stim.csv,JOLVersion.csv,JOL,JOL2,NAP,SLEEP,Study1,F,84,89,Test,User,-,,Recall,Recall2,1609,SLEEP,100,856,1382,1,1,,,1
5d59b01348766d0016949e6a,0bwidlu9nb,"Mediated Recall_Prolific",1,203,2023-02-23T22:39:45+00:00,2.8915538787842,4,versionB_stim.csv,JOLVersion.csv,JOL,JOL2,GIVE,STEAK,Study1,U,93,77,Test,User,-,,Recall,Recall2,2711,TEND,44.444444444444,2220,2653,0,0,,,1
5d59b01348766d0016949e6a,0bwidlu9nb,"Mediated Recall_Prolific",1,204,2023-02-23T22:39:48+00:00,2.7769780158997,4,versionB_stim.csv,JOLVersion.csv,JOL,JOL2,FUZZY,BANG,Study1,U,105,65,Test,User,-,,Recall,Recall2,2603,FEEL,0,1385,2254,0,0,,,1
5d59b01348766d0016949e6a,0bwidlu9nb,"Mediated Recall_Prolific",1,205,2023-02-23T22:39:50+00:00,2.2275111675262,4,versionB_stim.csv,JOLVersion.csv,JOL,JOL2,ROOT,PLANT,Study1,F,80,69,Test,User,-,,Recall,Recall2,2052,CARROT,36.363636363636,1210,1901,0,0,,,1
5d59b01348766d0016949e6a,0bwidlu9nb,"Mediated Recall_Prolific",1,206,2023-02-23T22:39:53+00:00,2.5541589260101,4,versionB_stim.csv,JOLVersion.csv,JOL,JOL2,HARD,COTTON,Study1,M,75,66,Test,User,-,,Recall,Recall2,2356,SOFT,40,1636,2197,0,0,,,1
5d59b01348766d0016949e6a,0bwidlu9nb,"Mediated Recall_Prolific",1,207,2023-02-23T22:39:56+00:00,3.5777909755707,4,versionB_stim.csv,JOLVersion.csv,JOL,JOL2,LITTER,TRASH,Study1,F,76,85,Test,User,-,,Recall,Recall2,3401,TRASH,100,2118,3074,1,1,,,1
5d59b01348766d0016949e6a,0bwidlu9nb,"Mediated Recall_Prolific",1,208,2023-02-23T22:39:59+00:00,2.7687120437622,4,versionB_stim.csv,JOLVersion.csv,JOL,JOL2,SOON,BELT,Study1,U,101,87,Test,User,-,,Recall,Recall2,2580,THERE,22.222222222222,1843,2371,0,0,,,1
5d59b01348766d0016949e6a,0bwidlu9nb,"Mediated Recall_Prolific",1,209,2023-02-23T22:40:02+00:00,3.1956009864807,4,versionB_stim.csv,JOLVersion.csv,JOL,JOL2,BIRTHDAY,PIE,Study1,M,64,73,Test,User,-,,Recall,Recall2,2945,PIE,100,1282,2759,1,1,,,1
5d59b01348766d0016949e6a,0bwidlu9nb,"Mediated Recall_Prolific",1,210,2023-02-23T22:40:06+00:00,4.297730922699,4,versionB_stim.csv,JOLVersion.csv,JOL,JOL2,TEMPERATURE,MORNING,Study1,U,103,92,Test,User,-,,Recall,Recall2,3980,FREEZE,15.384615384615,2428,3732,0,0,,,1
5d59b01348766d0016949e6a,0bwidlu9nb,"Mediated Recall_Prolific",1,211,2023-02-23T22:40:09+00:00,2.56893491745,4,versionB_stim.csv,JOLVersion.csv,JOL,JOL2,TOOTH,HAIR,Study1,M,74,101,Test,User,-,,Recall,Recall2,2345,DECAY,22.222222222222,1555,2183,0,0,,,1
5d59b01348766d0016949e6a,0bwidlu9nb,"Mediated Recall_Prolific",1,212,2023-02-23T22:40:11+00:00,1.7848761081696,4,versionB_stim.csv,JOLVersion.csv,JOL,JOL2,SWAN,BIRD,Study1,F,81,95,Test,User,-,,Recall,Recall2,1600,BIRD,100,952,1417,1,1,,,1
5d59b01348766d0016949e6a,0bwidlu9nb,"Mediated Recall_Prolific",1,213,2023-02-23T22:40:13+00:00,1.7925179004669,4,versionB_stim.csv,JOLVersion.csv,JOL,JOL2,CREDIT,CARD,Study1,F,88,99,Test,User,-,,Recall,Recall2,1580,CARD,100,989,1341,1,1,,,1
5d59b01348766d0016949e6a,0bwidlu9nb,"Mediated Recall_Prolific",1,214,2023-02-23T22:40:18+00:00,5.3228960037231,4,versionB_stim.csv,JOLVersion.csv,JOL,JOL2,KEYS,ROD,Study1,U,100,93,Test,User,-,,Recall,Recall2,5002,POLE,28.571428571429,3008,4852,0,0,,,1
5d59b01348766d0016949e6a,0bwidlu9nb,"Mediated Recall_Prolific",1,215,2023-02-23T22:40:19+00:00,1.0579481124878,4,versionB_stim.csv,JOLVersion.csv,JOL,JOL2,,,,,,0,Instruct,User,-,"You have completed this section. Please press Enter.",,Instruct7,822,,,-1,-1,,,,,1
5d59b01348766d0016949e6a,0bwidlu9nb,"Mediated Recall_Prolific",1,216,2023-02-23T22:40:22+00:00,3.3984220027924,4,versionB_stim.csv,JOLVersion.csv,JOL,JOL2,,,,,,0,Instruct,User,-,"The following screen will ask you a few questions abour your experience today. You must complete these questions to receive credit.",,Instruct8,3063,,,-1,-1,,,,,1
