"Username","Condition.Number","Condition.Description","Stimuli.Cue","Stimuli.Answer","Stimuli.Shuffle","Stimuli.Stimuli.Notes","Stimuli.Value","Procedure.Item","Procedure.Trial.Type","Procedure.Shuffle","Procedure.","Response.RT","Response.Response","Response.JOL"
"AbigayleQuinley",7,"Read Recog","HORNET","STING","Study2","F",30,17,"Study","Study Phase","",13216,"",NA
"AbigayleQuinley",7,"Read Recog","WASP","BUG","Study2","F",34,45,"Study","Study Phase","",7941,"",NA
"AbigayleQuinley",7,"Read Recog","LEAGUE","BASEBALL","Study2","F",29,46,"Study","Study Phase","",3099,"",NA
"AbigayleQuinley",7,"Read Recog","SICK","HIDE","Study2","U",45,20,"Study","Study Phase","",3329,"",NA
"AbigayleQuinley",7,"Read Recog","TRAP","CAVE","Study2","M",15,48,"Study","Study Phase","",2876,"",NA
"AbigayleQuinley",7,"Read Recog","OVEN","BASKET","Study2","M",16,28,"Study","Study Phase","",5179,"",NA
"AbigayleQuinley",7,"Read Recog","NURSE","LAWYER","Study2","M",11,32,"Study","Study Phase","",3263,"",NA
"AbigayleQuinley",7,"Read Recog","CHISEL","HAMMER","Study2","F",23,9,"Study","Study Phase","",3474,"",NA
"AbigayleQuinley",7,"Read Recog","ATTIRE","CLOTHES","Study2","F",24,50,"Study","Study Phase","",3318,"",NA
"AbigayleQuinley",7,"Read Recog","SUMMER","SNOW","Study2","M",6,43,"Study","Study Phase","",3183,"",NA
"AbigayleQuinley",7,"Read Recog","BRIDGE","WATER","Study2","F",35,29,"Study","Study Phase","",2870,"",NA
"AbigayleQuinley",7,"Read Recog","HERD","COW","Study2","F",33,7,"Study","Study Phase","",2645,"",NA
"AbigayleQuinley",7,"Read Recog","REALITY","ISLAND","Study2","M",9,15,"Study","Study Phase","",2562,"",NA
"AbigayleQuinley",7,"Read Recog","INCENSE","SMELL","Study2","F",28,33,"Study","Study Phase","",2944,"",NA
"AbigayleQuinley",7,"Read Recog","CHERRY","RED","Study2","F",25,44,"Study","Study Phase","",2308,"",NA
"AbigayleQuinley",7,"Read Recog","PANTS","COLLAR","Study2","M",8,8,"Study","Study Phase","",2313,"",NA
"AbigayleQuinley",7,"Read Recog","HAPPY","CAR","Study2","U",37,38,"Study","Study Phase","",5559,"",NA
"AbigayleQuinley",7,"Read Recog","CASH","LEG","Study2","U",50,12,"Study","Study Phase","",2729,"",NA
"AbigayleQuinley",7,"Read Recog","FEUD","FIGHT","Study2","F",31,41,"Study","Study Phase","",1975,"",NA
"AbigayleQuinley",7,"Read Recog","SUGAR","RIDDLE","Study2","U",40,14,"Study","Study Phase","",2686,"",NA
"AbigayleQuinley",7,"Read Recog","WINDOW","KNOB","Study2","M",19,11,"Study","Study Phase","",3828,"",NA
"AbigayleQuinley",7,"Read Recog","VALLEY","PEAK","Study2","M",18,10,"Study","Study Phase","",3880,"",NA
"AbigayleQuinley",7,"Read Recog","BENCH","HORN","Study2","U",43,16,"Study","Study Phase","",4621,"",NA
"AbigayleQuinley",7,"Read Recog","BLAZE","FIRE","Study2","F",26,23,"Study","Study Phase","",3137,"",NA
"AbigayleQuinley",7,"Read Recog","ARTERY","BRONZE","Study2","U",48,26,"Study","Study Phase","",2976,"",NA
"AbigayleQuinley",7,"Read Recog","RAZOR","MUSCLE","Study2","M",20,47,"Study","Study Phase","",2328,"",NA
"AbigayleQuinley",7,"Read Recog","KING","VASE","Study2","U",36,34,"Study","Study Phase","",2674,"",NA
"AbigayleQuinley",7,"Read Recog","LEASE","TOIL","Study2","U",46,18,"Study","Study Phase","",2412,"",NA
"AbigayleQuinley",7,"Read Recog","CHOP","CUT","Study2","F",22,36,"Study","Study Phase","",3704,"",NA
"AbigayleQuinley",7,"Read Recog","DOCUMENT","PAPER","Study2","F",27,37,"Study","Study Phase","",2333,"",NA
"AbigayleQuinley",7,"Read Recog","CHILL","COLD","Study2","F",32,39,"Study","Study Phase","",2430,"",NA
"AbigayleQuinley",7,"Read Recog","SOAP","DRINK","Study2","M",12,42,"Study","Study Phase","",3366,"",NA
"AbigayleQuinley",7,"Read Recog","GRILL","THIGH","Study2","M",17,22,"Study","Study Phase","",3405,"",NA
"AbigayleQuinley",7,"Read Recog","STRONG","ACCIDENT","Study2","U",39,21,"Study","Study Phase","",3468,"",NA
"AbigayleQuinley",7,"Read Recog","BOTH","OUNCE","Study2","U",47,49,"Study","Study Phase","",5599,"",NA
"AbigayleQuinley",7,"Read Recog","HEAVY","FEATHER","Study2","M",13,24,"Study","Study Phase","",3121,"",NA
"AbigayleQuinley",7,"Read Recog","CACTUS","PLANT","Study2","F",21,19,"Study","Study Phase","",4321,"",NA
"AbigayleQuinley",7,"Read Recog","SCHOOL","STOP","Study2","M",7,40,"Study","Study Phase","",2742,"",NA
"AbigayleQuinley",7,"Read Recog","DIETARY","SACK","Study2","U",42,25,"Study","Study Phase","",5462,"",NA
"AbigayleQuinley",7,"Read Recog","DEATH","BUSINESS","Study2","U",44,13,"Study","Study Phase","",3648,"",NA
"AbigayleQuinley",7,"Read Recog","PUSH","CLUTTER","Study2","U",41,51,"Study","Study Phase","",3660,"",NA
"AbigayleQuinley",7,"Read Recog","ART","WOLF","Study2","U",38,27,"Study","Study Phase","",3300,"",NA
"AbigayleQuinley",7,"Read Recog","EYES","SMELL","Study2","M",10,30,"Study","Study Phase","",3547,"",NA
"AbigayleQuinley",7,"Read Recog","RAKE","SEED","Study2","M",14,31,"Study","Study Phase","",2633,"",NA
"AbigayleQuinley",7,"Read Recog","MIRROR","CHILDREN","Study2","U",49,35,"Study","Study Phase","",3935,"",NA
"AdelineMetzger",7,"Read Recog","OVEN","BASKET","Study2","M",16,12,"Study","Study Phase","",11092,"",NA
"AdelineMetzger",7,"Read Recog","PUSH","CLUTTER","Study2","U",41,25,"Study","Study Phase","",5239,"",NA
"AdelineMetzger",7,"Read Recog","CASH","LEG","Study2","U",50,51,"Study","Study Phase","",5237,"",NA
"AdelineMetzger",7,"Read Recog","CHERRY","RED","Study2","F",25,22,"Study","Study Phase","",5966,"",NA
"AdelineMetzger",7,"Read Recog","HERD","COW","Study2","F",33,30,"Study","Study Phase","",3390,"",NA
"AdelineMetzger",7,"Read Recog","CHOP","CUT","Study2","F",22,38,"Study","Study Phase","",3020,"",NA
"AdelineMetzger",7,"Read Recog","CHISEL","HAMMER","Study2","F",23,10,"Study","Study Phase","",2360,"",NA
"AdelineMetzger",7,"Read Recog","SUGAR","RIDDLE","Study2","U",40,8,"Study","Study Phase","",4254,"",NA
"AdelineMetzger",7,"Read Recog","BENCH","HORN","Study2","U",43,40,"Study","Study Phase","",4629,"",NA
"AdelineMetzger",7,"Read Recog","DOCUMENT","PAPER","Study2","F",27,26,"Study","Study Phase","",3667,"",NA
"AdelineMetzger",7,"Read Recog","WINDOW","KNOB","Study2","M",19,43,"Study","Study Phase","",1910,"",NA
"AdelineMetzger",7,"Read Recog","SCHOOL","STOP","Study2","M",7,16,"Study","Study Phase","",1821,"",NA
"AdelineMetzger",7,"Read Recog","HORNET","STING","Study2","F",30,11,"Study","Study Phase","",3835,"",NA
"AdelineMetzger",7,"Read Recog","GRILL","THIGH","Study2","M",17,13,"Study","Study Phase","",2732,"",NA
"AdelineMetzger",7,"Read Recog","CHILL","COLD","Study2","F",32,19,"Study","Study Phase","",2020,"",NA
"AdelineMetzger",7,"Read Recog","INCENSE","SMELL","Study2","F",28,44,"Study","Study Phase","",2675,"",NA
"AdelineMetzger",7,"Read Recog","RAZOR","MUSCLE","Study2","M",20,41,"Study","Study Phase","",4120,"",NA
"AdelineMetzger",7,"Read Recog","ATTIRE","CLOTHES","Study2","F",24,33,"Study","Study Phase","",1986,"",NA
"AdelineMetzger",7,"Read Recog","NURSE","LAWYER","Study2","M",11,23,"Study","Study Phase","",2087,"",NA
"AdelineMetzger",7,"Read Recog","BOTH","OUNCE","Study2","U",47,9,"Study","Study Phase","",2164,"",NA
"AdelineMetzger",7,"Read Recog","MIRROR","CHILDREN","Study2","U",49,14,"Study","Study Phase","",3450,"",NA
"AdelineMetzger",7,"Read Recog","CACTUS","PLANT","Study2","F",21,49,"Study","Study Phase","",2180,"",NA
"AdelineMetzger",7,"Read Recog","SICK","HIDE","Study2","U",45,32,"Study","Study Phase","",2605,"",NA
"AdelineMetzger",7,"Read Recog","KING","VASE","Study2","U",36,39,"Study","Study Phase","",2921,"",NA
"AdelineMetzger",7,"Read Recog","RAKE","SEED","Study2","M",14,31,"Study","Study Phase","",3584,"",NA
"AdelineMetzger",7,"Read Recog","DEATH","BUSINESS","Study2","U",44,36,"Study","Study Phase","",2571,"",NA
"AdelineMetzger",7,"Read Recog","STRONG","ACCIDENT","Study2","U",39,29,"Study","Study Phase","",4324,"",NA
"AdelineMetzger",7,"Read Recog","REALITY","ISLAND","Study2","M",9,48,"Study","Study Phase","",4611,"",NA
"AdelineMetzger",7,"Read Recog","ART","WOLF","Study2","U",38,34,"Study","Study Phase","",2713,"",NA
"AdelineMetzger",7,"Read Recog","LEAGUE","BASEBALL","Study2","F",29,21,"Study","Study Phase","",3230,"",NA
"AdelineMetzger",7,"Read Recog","SOAP","DRINK","Study2","M",12,35,"Study","Study Phase","",6272,"",NA
"AdelineMetzger",7,"Read Recog","WASP","BUG","Study2","F",34,20,"Study","Study Phase","",4354,"",NA
"AdelineMetzger",7,"Read Recog","HEAVY","FEATHER","Study2","M",13,42,"Study","Study Phase","",3541,"",NA
"AdelineMetzger",7,"Read Recog","FEUD","FIGHT","Study2","F",31,45,"Study","Study Phase","",2540,"",NA
"AdelineMetzger",7,"Read Recog","DIETARY","SACK","Study2","U",42,24,"Study","Study Phase","",1705,"",NA
"AdelineMetzger",7,"Read Recog","HAPPY","CAR","Study2","U",37,46,"Study","Study Phase","",2803,"",NA
"AdelineMetzger",7,"Read Recog","SUMMER","SNOW","Study2","M",6,37,"Study","Study Phase","",2492,"",NA
"AdelineMetzger",7,"Read Recog","BRIDGE","WATER","Study2","F",35,15,"Study","Study Phase","",3404,"",NA
"AdelineMetzger",7,"Read Recog","ARTERY","BRONZE","Study2","U",48,28,"Study","Study Phase","",3442,"",NA
"AdelineMetzger",7,"Read Recog","PANTS","COLLAR","Study2","M",8,18,"Study","Study Phase","",2879,"",NA
"AdelineMetzger",7,"Read Recog","BLAZE","FIRE","Study2","F",26,17,"Study","Study Phase","",2752,"",NA
"AdelineMetzger",7,"Read Recog","EYES","SMELL","Study2","M",10,7,"Study","Study Phase","",6399,"",NA
"AdelineMetzger",7,"Read Recog","VALLEY","PEAK","Study2","M",18,27,"Study","Study Phase","",2991,"",NA
"AdelineMetzger",7,"Read Recog","LEASE","TOIL","Study2","U",46,47,"Study","Study Phase","",3683,"",NA
"AdelineMetzger",7,"Read Recog","TRAP","CAVE","Study2","M",15,50,"Study","Study Phase","",5445,"",NA
"alliesmith",5,"Read Recog","HARD","COTTON","Study1","M",20,43,"Study","Study Phase","",1539,"",NA
"alliesmith",5,"Read Recog","VEHICLE","CHARM","Study1","U",40,16,"Study","Study Phase","",1373,"",NA
"alliesmith",5,"Read Recog","SWAN","BIRD","Study1","F",26,40,"Study","Study Phase","",1947,"",NA
"alliesmith",5,"Read Recog","HORSE","WHEEL","Study1","M",14,49,"Study","Study Phase","",2449,"",NA
"alliesmith",5,"Read Recog","BIRTHDAY","PIE","Study1","M",9,11,"Study","Study Phase","",6463,"",NA
"alliesmith",5,"Read Recog","WAR","QUIET","Study1","M",8,14,"Study","Study Phase","",1530,"",NA
"alliesmith",5,"Read Recog","BAT","BOUNCE","Study1","M",12,18,"Study","Study Phase","",1331,"",NA
"alliesmith",5,"Read Recog","CRACKLE","ELECTION","Study1","U",39,20,"Study","Study Phase","",1389,"",NA
"alliesmith",5,"Read Recog","MIRROR","MAROON","Study1","U",36,51,"Study","Study Phase","",1309,"",NA
"alliesmith",5,"Read Recog","CIRCLE","DANCE","Study1","M",13,45,"Study","Study Phase","",1526,"",NA
"alliesmith",5,"Read Recog","WAGE","MONEY","Study1","F",22,46,"Study","Study Phase","",3600,"",NA
"alliesmith",5,"Read Recog","SIGN","TICK","Study1","U",47,41,"Study","Study Phase","",4668,"",NA
"alliesmith",5,"Read Recog","LION","STRIPES","Study1","M",6,9,"Study","Study Phase","",2920,"",NA
"alliesmith",5,"Read Recog","CREDIT","CARD","Study1","F",33,23,"Study","Study Phase","",1317,"",NA
"alliesmith",5,"Read Recog","NAP","SLEEP","Study1","F",29,34,"Study","Study Phase","",3895,"",NA
"alliesmith",5,"Read Recog","SHELL","SHAKE","Study1","U",43,35,"Study","Study Phase","",11425,"",NA
"alliesmith",5,"Read Recog","MAZE","PHONE","Study1","U",42,32,"Study","Study Phase","",1059,"",NA
"alliesmith",5,"Read Recog","SCALP","HEAD","Study1","F",23,30,"Study","Study Phase","",1237,"",NA
"alliesmith",5,"Read Recog","TUNA","FISH","Study1","F",35,22,"Study","Study Phase","",13652,"",NA
"alliesmith",5,"Read Recog","GIVE","STEAK","Study1","U",38,37,"Study","Study Phase","",986,"",NA
"alliesmith",5,"Read Recog","STRETCH","CLOTH","Study1","U",37,12,"Study","Study Phase","",1650,"",NA
"alliesmith",5,"Read Recog","CEILING","CARPET","Study1","M",15,10,"Study","Study Phase","",3461,"",NA
"alliesmith",5,"Read Recog","BEACH","BOX","Study1","M",7,39,"Study","Study Phase","",2688,"",NA
"alliesmith",5,"Read Recog","SIP","DRINK","Study1","F",32,19,"Study","Study Phase","",689,"",NA
"alliesmith",5,"Read Recog","LITTER","TRASH","Study1","F",21,36,"Study","Study Phase","",2827,"",NA
"alliesmith",5,"Read Recog","TOOTH","HAIR","Study1","M",19,28,"Study","Study Phase","",4370,"",NA
"alliesmith",5,"Read Recog","MEAT","KEYS","Study1","U",41,17,"Study","Study Phase","",4056,"",NA
"alliesmith",5,"Read Recog","HYGIENE","CLEAN","Study1","F",28,27,"Study","Study Phase","",2149,"",NA
"alliesmith",5,"Read Recog","TEMPERATURE","MORNING","Study1","U",48,8,"Study","Study Phase","",2038,"",NA
"alliesmith",5,"Read Recog","MULE","DONKEY","Study1","F",30,48,"Study","Study Phase","",2775,"",NA
"alliesmith",5,"Read Recog","MULE","DONKEY","Study1","F",24,13,"Study","Study Phase","",1485,"",NA
"alliesmith",5,"Read Recog","TREE","SYRUP","Study1","M",11,7,"Study","Study Phase","",1824,"",NA
"alliesmith",5,"Read Recog","AFFECTION","LOVE","Study1","F",31,29,"Study","Study Phase","",1922,"",NA
"alliesmith",5,"Read Recog","CAKE","HAND","Study1","U",49,44,"Study","Study Phase","",2729,"",NA
"alliesmith",5,"Read Recog","ORCHID","FLOWER","Study1","F",34,33,"Study","Study Phase","",1637,"",NA
"alliesmith",5,"Read Recog","FUZZY","BANG","Study1","U",50,21,"Study","Study Phase","",3617,"",NA
"alliesmith",5,"Read Recog","DAY","DARK","Study1","M",18,24,"Study","Study Phase","",1503,"",NA
"alliesmith",5,"Read Recog","LISTEN","FICTION","Study1","U",44,15,"Study","Study Phase","",1602,"",NA
"alliesmith",5,"Read Recog","ROOT","PLANT","Study1","F",25,47,"Study","Study Phase","",1194,"",NA
"alliesmith",5,"Read Recog","CRY","BOTTLE","Study1","M",16,38,"Study","Study Phase","",1260,"",NA
"alliesmith",5,"Read Recog","SOON","BELT","Study1","U",46,50,"Study","Study Phase","",4684,"",NA
"alliesmith",5,"Read Recog","WEDDING","FINGER","Study1","M",17,26,"Study","Study Phase","",1305,"",NA
"alliesmith",5,"Read Recog","KEYS","ROD","Study1","U",45,31,"Study","Study Phase","",1356,"",NA
"alliesmith",5,"Read Recog","WORD","SENTENCE","Study1","F",27,25,"Study","Study Phase","",1420,"",NA
"alliesmith",5,"Read Recog","ROUGH","SILK","Study1","M",10,42,"Study","Study Phase","",1498,"",NA
"AllisonNeel",7,"Read Recog","HAPPY","CAR","Study2","U",37,15,"Study","Study Phase","",3784,"",NA
"AllisonNeel",7,"Read Recog","TRAP","CAVE","Study2","M",15,37,"Study","Study Phase","",4709,"",NA
"AllisonNeel",7,"Read Recog","CHILL","COLD","Study2","F",32,28,"Study","Study Phase","",7559,"",NA
"AllisonNeel",7,"Read Recog","CHOP","CUT","Study2","F",22,17,"Study","Study Phase","",5530,"",NA
"AllisonNeel",7,"Read Recog","CHISEL","HAMMER","Study2","F",23,18,"Study","Study Phase","",3219,"",NA
"AllisonNeel",7,"Read Recog","BENCH","HORN","Study2","U",43,39,"Study","Study Phase","",3299,"",NA
"AllisonNeel",7,"Read Recog","WASP","BUG","Study2","F",34,41,"Study","Study Phase","",3590,"",NA
"AllisonNeel",7,"Read Recog","ARTERY","BRONZE","Study2","U",48,20,"Study","Study Phase","",2125,"",NA
"AllisonNeel",7,"Read Recog","CHERRY","RED","Study2","F",25,49,"Study","Study Phase","",4077,"",NA
"AllisonNeel",7,"Read Recog","CACTUS","PLANT","Study2","F",21,26,"Study","Study Phase","",3703,"",NA
"AllisonNeel",7,"Read Recog","GRILL","THIGH","Study2","M",17,40,"Study","Study Phase","",4784,"",NA
"AllisonNeel",7,"Read Recog","OVEN","BASKET","Study2","M",16,51,"Study","Study Phase","",7398,"",NA
"AllisonNeel",7,"Read Recog","SOAP","DRINK","Study2","M",12,29,"Study","Study Phase","",4517,"",NA
"AllisonNeel",7,"Read Recog","HORNET","STING","Study2","F",30,32,"Study","Study Phase","",3968,"",NA
"AllisonNeel",7,"Read Recog","RAZOR","MUSCLE","Study2","M",20,13,"Study","Study Phase","",4612,"",NA
"AllisonNeel",7,"Read Recog","HEAVY","FEATHER","Study2","M",13,44,"Study","Study Phase","",3047,"",NA
"AllisonNeel",7,"Read Recog","WINDOW","KNOB","Study2","M",19,27,"Study","Study Phase","",4085,"",NA
"AllisonNeel",7,"Read Recog","DEATH","BUSINESS","Study2","U",44,36,"Study","Study Phase","",5025,"",NA
"AllisonNeel",7,"Read Recog","SUMMER","SNOW","Study2","M",6,47,"Study","Study Phase","",1902,"",NA
"AllisonNeel",7,"Read Recog","DIETARY","SACK","Study2","U",42,34,"Study","Study Phase","",7884,"",NA
"AllisonNeel",7,"Read Recog","SCHOOL","STOP","Study2","M",7,38,"Study","Study Phase","",2453,"",NA
"AllisonNeel",7,"Read Recog","FEUD","FIGHT","Study2","F",31,10,"Study","Study Phase","",4428,"",NA
"AllisonNeel",7,"Read Recog","HERD","COW","Study2","F",33,16,"Study","Study Phase","",4392,"",NA
"AllisonNeel",7,"Read Recog","ATTIRE","CLOTHES","Study2","F",24,23,"Study","Study Phase","",2695,"",NA
"AllisonNeel",7,"Read Recog","RAKE","SEED","Study2","M",14,11,"Study","Study Phase","",2445,"",NA
"AllisonNeel",7,"Read Recog","LEASE","TOIL","Study2","U",46,19,"Study","Study Phase","",5902,"",NA
"AllisonNeel",7,"Read Recog","STRONG","ACCIDENT","Study2","U",39,9,"Study","Study Phase","",5093,"",NA
"AllisonNeel",7,"Read Recog","BRIDGE","WATER","Study2","F",35,46,"Study","Study Phase","",5883,"",NA
"AllisonNeel",7,"Read Recog","CASH","LEG","Study2","U",50,30,"Study","Study Phase","",6269,"",NA
"AllisonNeel",7,"Read Recog","SUGAR","RIDDLE","Study2","U",40,42,"Study","Study Phase","",8381,"",NA
"AllisonNeel",7,"Read Recog","DOCUMENT","PAPER","Study2","F",27,33,"Study","Study Phase","",5645,"",NA
"AllisonNeel",7,"Read Recog","VALLEY","PEAK","Study2","M",18,35,"Study","Study Phase","",5414,"",NA
"AllisonNeel",7,"Read Recog","SICK","HIDE","Study2","U",45,48,"Study","Study Phase","",4390,"",NA
"AllisonNeel",7,"Read Recog","LEAGUE","BASEBALL","Study2","F",29,31,"Study","Study Phase","",2211,"",NA
"AllisonNeel",7,"Read Recog","PANTS","COLLAR","Study2","M",8,43,"Study","Study Phase","",3217,"",NA
"AllisonNeel",7,"Read Recog","PUSH","CLUTTER","Study2","U",41,50,"Study","Study Phase","",4500,"",NA
"AllisonNeel",7,"Read Recog","INCENSE","SMELL","Study2","F",28,45,"Study","Study Phase","",2226,"",NA
"AllisonNeel",7,"Read Recog","NURSE","LAWYER","Study2","M",11,14,"Study","Study Phase","",3328,"",NA
"AllisonNeel",7,"Read Recog","KING","VASE","Study2","U",36,22,"Study","Study Phase","",5579,"",NA
"AllisonNeel",7,"Read Recog","REALITY","ISLAND","Study2","M",9,12,"Study","Study Phase","",5397,"",NA
"AllisonNeel",7,"Read Recog","EYES","SMELL","Study2","M",10,25,"Study","Study Phase","",4769,"",NA
"AllisonNeel",7,"Read Recog","BOTH","OUNCE","Study2","U",47,24,"Study","Study Phase","",2226,"",NA
"AllisonNeel",7,"Read Recog","BLAZE","FIRE","Study2","F",26,7,"Study","Study Phase","",3321,"",NA
"AllisonNeel",7,"Read Recog","ART","WOLF","Study2","U",38,8,"Study","Study Phase","",1367,"",NA
"AllisonNeel",7,"Read Recog","MIRROR","CHILDREN","Study2","U",49,21,"Study","Study Phase","",5490,"",NA
"ayannajones",5,"Read Recog","BIRTHDAY","PIE","Study1","M",9,51,"Study","Study Phase","",5558,"",NA
"ayannajones",5,"Read Recog","SWAN","BIRD","Study1","F",26,47,"Study","Study Phase","",5839,"",NA
"ayannajones",5,"Read Recog","SOON","BELT","Study1","U",46,11,"Study","Study Phase","",9756,"",NA
"ayannajones",5,"Read Recog","SCALP","HEAD","Study1","F",23,50,"Study","Study Phase","",6517,"",NA
"ayannajones",5,"Read Recog","VEHICLE","CHARM","Study1","U",40,38,"Study","Study Phase","",6725,"",NA
"ayannajones",5,"Read Recog","CEILING","CARPET","Study1","M",15,44,"Study","Study Phase","",8731,"",NA
"ayannajones",5,"Read Recog","BAT","BOUNCE","Study1","M",12,16,"Study","Study Phase","",12065,"",NA
"ayannajones",5,"Read Recog","LISTEN","FICTION","Study1","U",44,22,"Study","Study Phase","",5443,"",NA
"ayannajones",5,"Read Recog","TUNA","FISH","Study1","F",35,24,"Study","Study Phase","",7166,"",NA
"ayannajones",5,"Read Recog","MULE","DONKEY","Study1","F",24,28,"Study","Study Phase","",12331,"",NA
"ayannajones",5,"Read Recog","MAZE","PHONE","Study1","U",42,10,"Study","Study Phase","",10951,"",NA
"ayannajones",5,"Read Recog","SIP","DRINK","Study1","F",32,30,"Study","Study Phase","",9116,"",NA
"ayannajones",5,"Read Recog","CRY","BOTTLE","Study1","M",16,15,"Study","Study Phase","",19634,"",NA
"ayannajones",5,"Read Recog","HYGIENE","CLEAN","Study1","F",28,40,"Study","Study Phase","",15154,"",NA
"ayannajones",5,"Read Recog","DAY","DARK","Study1","M",18,25,"Study","Study Phase","",12602,"",NA
"ayannajones",5,"Read Recog","HARD","COTTON","Study1","M",20,14,"Study","Study Phase","",8279,"",NA
"ayannajones",5,"Read Recog","WAGE","MONEY","Study1","F",22,36,"Study","Study Phase","",7162,"",NA
"ayannajones",5,"Read Recog","WAR","QUIET","Study1","M",8,29,"Study","Study Phase","",4797,"",NA
"ayannajones",5,"Read Recog","MULE","DONKEY","Study1","F",30,35,"Study","Study Phase","",5379,"",NA
"ayannajones",5,"Read Recog","TREE","SYRUP","Study1","M",11,7,"Study","Study Phase","",5131,"",NA
"ayannajones",5,"Read Recog","WEDDING","FINGER","Study1","M",17,27,"Study","Study Phase","",3890,"",NA
"ayannajones",5,"Read Recog","CAKE","HAND","Study1","U",49,42,"Study","Study Phase","",5440,"",NA
"ayannajones",5,"Read Recog","ORCHID","FLOWER","Study1","F",34,31,"Study","Study Phase","",23807,"",NA
"ayannajones",5,"Read Recog","LION","STRIPES","Study1","M",6,39,"Study","Study Phase","",5253,"",NA
"ayannajones",5,"Read Recog","MIRROR","MAROON","Study1","U",36,13,"Study","Study Phase","",7522,"",NA
"ayannajones",5,"Read Recog","NAP","SLEEP","Study1","F",29,9,"Study","Study Phase","",5059,"",NA
"ayannajones",5,"Read Recog","CRACKLE","ELECTION","Study1","U",39,37,"Study","Study Phase","",12685,"",NA
"ayannajones",5,"Read Recog","TOOTH","HAIR","Study1","M",19,21,"Study","Study Phase","",4258,"",NA
"ayannajones",5,"Read Recog","CREDIT","CARD","Study1","F",33,8,"Study","Study Phase","",6010,"",NA
"ayannajones",5,"Read Recog","KEYS","ROD","Study1","U",45,49,"Study","Study Phase","",10132,"",NA
"ayannajones",5,"Read Recog","SIGN","TICK","Study1","U",47,20,"Study","Study Phase","",4932,"",NA
"ayannajones",5,"Read Recog","ROUGH","SILK","Study1","M",10,43,"Study","Study Phase","",15661,"",NA
"ayannajones",5,"Read Recog","TEMPERATURE","MORNING","Study1","U",48,34,"Study","Study Phase","",9202,"",NA
"ayannajones",5,"Read Recog","SHELL","SHAKE","Study1","U",43,46,"Study","Study Phase","",4729,"",NA
"ayannajones",5,"Read Recog","CIRCLE","DANCE","Study1","M",13,26,"Study","Study Phase","",5770,"",NA
"ayannajones",5,"Read Recog","GIVE","STEAK","Study1","U",38,32,"Study","Study Phase","",7086,"",NA
"ayannajones",5,"Read Recog","FUZZY","BANG","Study1","U",50,33,"Study","Study Phase","",5114,"",NA
"ayannajones",5,"Read Recog","AFFECTION","LOVE","Study1","F",31,45,"Study","Study Phase","",4742,"",NA
"ayannajones",5,"Read Recog","WORD","SENTENCE","Study1","F",27,18,"Study","Study Phase","",7533,"",NA
"ayannajones",5,"Read Recog","STRETCH","CLOTH","Study1","U",37,17,"Study","Study Phase","",5320,"",NA
"ayannajones",5,"Read Recog","BEACH","BOX","Study1","M",7,23,"Study","Study Phase","",18809,"",NA
"ayannajones",5,"Read Recog","HORSE","WHEEL","Study1","M",14,12,"Study","Study Phase","",7831,"",NA
"ayannajones",5,"Read Recog","MEAT","KEYS","Study1","U",41,41,"Study","Study Phase","",13437,"",NA
"ayannajones",5,"Read Recog","ROOT","PLANT","Study1","F",25,19,"Study","Study Phase","",12266,"",NA
"ayannajones",5,"Read Recog","LITTER","TRASH","Study1","F",21,48,"Study","Study Phase","",9206,"",NA
"BrickleighWolfe",7,"Read Recog","BRIDGE","WATER","Study2","F",35,16,"Study","Study Phase","",948,"",NA
"BrickleighWolfe",7,"Read Recog","HAPPY","CAR","Study2","U",37,30,"Study","Study Phase","",2827,"",NA
"BrickleighWolfe",7,"Read Recog","WINDOW","KNOB","Study2","M",19,23,"Study","Study Phase","",4640,"",NA
"BrickleighWolfe",7,"Read Recog","CHERRY","RED","Study2","F",25,38,"Study","Study Phase","",927,"",NA
"BrickleighWolfe",7,"Read Recog","SOAP","DRINK","Study2","M",12,25,"Study","Study Phase","",5413,"",NA
"BrickleighWolfe",7,"Read Recog","DEATH","BUSINESS","Study2","U",44,10,"Study","Study Phase","",4036,"",NA
"BrickleighWolfe",7,"Read Recog","MIRROR","CHILDREN","Study2","U",49,35,"Study","Study Phase","",2049,"",NA
"BrickleighWolfe",7,"Read Recog","CACTUS","PLANT","Study2","F",21,29,"Study","Study Phase","",886,"",NA
"BrickleighWolfe",7,"Read Recog","SCHOOL","STOP","Study2","M",7,44,"Study","Study Phase","",1477,"",NA
"BrickleighWolfe",7,"Read Recog","HORNET","STING","Study2","F",30,36,"Study","Study Phase","",1774,"",NA
"BrickleighWolfe",7,"Read Recog","TRAP","CAVE","Study2","M",15,12,"Study","Study Phase","",6332,"",NA
"BrickleighWolfe",7,"Read Recog","BENCH","HORN","Study2","U",43,40,"Study","Study Phase","",2696,"",NA
"BrickleighWolfe",7,"Read Recog","ATTIRE","CLOTHES","Study2","F",24,48,"Study","Study Phase","",2843,"",NA
"BrickleighWolfe",7,"Read Recog","SUMMER","SNOW","Study2","M",6,33,"Study","Study Phase","",2553,"",NA
"BrickleighWolfe",7,"Read Recog","PANTS","COLLAR","Study2","M",8,43,"Study","Study Phase","",3662,"",NA
"BrickleighWolfe",7,"Read Recog","ART","WOLF","Study2","U",38,47,"Study","Study Phase","",1919,"",NA
"BrickleighWolfe",7,"Read Recog","WASP","BUG","Study2","F",34,9,"Study","Study Phase","",1720,"",NA
"BrickleighWolfe",7,"Read Recog","CHOP","CUT","Study2","F",22,15,"Study","Study Phase","",1537,"",NA
"BrickleighWolfe",7,"Read Recog","SUGAR","RIDDLE","Study2","U",40,27,"Study","Study Phase","",4621,"",NA
"BrickleighWolfe",7,"Read Recog","EYES","SMELL","Study2","M",10,50,"Study","Study Phase","",2362,"",NA
"BrickleighWolfe",7,"Read Recog","BOTH","OUNCE","Study2","U",47,39,"Study","Study Phase","",3908,"",NA
"BrickleighWolfe",7,"Read Recog","SICK","HIDE","Study2","U",45,37,"Study","Study Phase","",1231,"",NA
"BrickleighWolfe",7,"Read Recog","VALLEY","PEAK","Study2","M",18,45,"Study","Study Phase","",1474,"",NA
"BrickleighWolfe",7,"Read Recog","FEUD","FIGHT","Study2","F",31,31,"Study","Study Phase","",1711,"",NA
"BrickleighWolfe",7,"Read Recog","LEAGUE","BASEBALL","Study2","F",29,41,"Study","Study Phase","",2838,"",NA
"BrickleighWolfe",7,"Read Recog","STRONG","ACCIDENT","Study2","U",39,20,"Study","Study Phase","",5547,"",NA
"BrickleighWolfe",7,"Read Recog","DIETARY","SACK","Study2","U",42,22,"Study","Study Phase","",3857,"",NA
"BrickleighWolfe",7,"Read Recog","NURSE","LAWYER","Study2","M",11,8,"Study","Study Phase","",2058,"",NA
"BrickleighWolfe",7,"Read Recog","PUSH","CLUTTER","Study2","U",41,32,"Study","Study Phase","",1783,"",NA
"BrickleighWolfe",7,"Read Recog","GRILL","THIGH","Study2","M",17,34,"Study","Study Phase","",1468,"",NA
"BrickleighWolfe",7,"Read Recog","RAZOR","MUSCLE","Study2","M",20,24,"Study","Study Phase","",4251,"",NA
"BrickleighWolfe",7,"Read Recog","HEAVY","FEATHER","Study2","M",13,42,"Study","Study Phase","",1142,"",NA
"BrickleighWolfe",7,"Read Recog","OVEN","BASKET","Study2","M",16,14,"Study","Study Phase","",9654,"",NA
"BrickleighWolfe",7,"Read Recog","CHILL","COLD","Study2","F",32,17,"Study","Study Phase","",1368,"",NA
"BrickleighWolfe",7,"Read Recog","CHISEL","HAMMER","Study2","F",23,18,"Study","Study Phase","",1383,"",NA
"BrickleighWolfe",7,"Read Recog","BLAZE","FIRE","Study2","F",26,21,"Study","Study Phase","",1326,"",NA
"BrickleighWolfe",7,"Read Recog","ARTERY","BRONZE","Study2","U",48,28,"Study","Study Phase","",3183,"",NA
"BrickleighWolfe",7,"Read Recog","HERD","COW","Study2","F",33,26,"Study","Study Phase","",3180,"",NA
"BrickleighWolfe",7,"Read Recog","INCENSE","SMELL","Study2","F",28,7,"Study","Study Phase","",5587,"",NA
"BrickleighWolfe",7,"Read Recog","KING","VASE","Study2","U",36,19,"Study","Study Phase","",1951,"",NA
"BrickleighWolfe",7,"Read Recog","RAKE","SEED","Study2","M",14,46,"Study","Study Phase","",9357,"",NA
"BrickleighWolfe",7,"Read Recog","REALITY","ISLAND","Study2","M",9,13,"Study","Study Phase","",2107,"",NA
"BrickleighWolfe",7,"Read Recog","DOCUMENT","PAPER","Study2","F",27,51,"Study","Study Phase","",883,"",NA
"BrickleighWolfe",7,"Read Recog","LEASE","TOIL","Study2","U",46,11,"Study","Study Phase","",3979,"",NA
"BrickleighWolfe",7,"Read Recog","CASH","LEG","Study2","U",50,49,"Study","Study Phase","",4384,"",NA
"ChloeMathes",7,"Read Recog","GRILL","THIGH","Study2","M",17,13,"Study","Study Phase","",3432,"",NA
"ChloeMathes",7,"Read Recog","CHISEL","HAMMER","Study2","F",23,8,"Study","Study Phase","",11337,"",NA
"ChloeMathes",7,"Read Recog","INCENSE","SMELL","Study2","F",28,47,"Study","Study Phase","",3332,"",NA
"ChloeMathes",7,"Read Recog","STRONG","ACCIDENT","Study2","U",39,14,"Study","Study Phase","",2562,"",NA
"ChloeMathes",7,"Read Recog","DEATH","BUSINESS","Study2","U",44,45,"Study","Study Phase","",12870,"",NA
"ChloeMathes",7,"Read Recog","TRAP","CAVE","Study2","M",15,38,"Study","Study Phase","",2438,"",NA
"ChloeMathes",7,"Read Recog","REALITY","ISLAND","Study2","M",9,33,"Study","Study Phase","",2297,"",NA
"ChloeMathes",7,"Read Recog","RAKE","SEED","Study2","M",14,12,"Study","Study Phase","",3821,"",NA
"ChloeMathes",7,"Read Recog","CHERRY","RED","Study2","F",25,41,"Study","Study Phase","",3229,"",NA
"ChloeMathes",7,"Read Recog","CASH","LEG","Study2","U",50,30,"Study","Study Phase","",4306,"",NA
"ChloeMathes",7,"Read Recog","FEUD","FIGHT","Study2","F",31,22,"Study","Study Phase","",4777,"",NA
"ChloeMathes",7,"Read Recog","HERD","COW","Study2","F",33,44,"Study","Study Phase","",4289,"",NA
"ChloeMathes",7,"Read Recog","CACTUS","PLANT","Study2","F",21,34,"Study","Study Phase","",3691,"",NA
"ChloeMathes",7,"Read Recog","ARTERY","BRONZE","Study2","U",48,49,"Study","Study Phase","",4558,"",NA
"ChloeMathes",7,"Read Recog","SCHOOL","STOP","Study2","M",7,48,"Study","Study Phase","",2561,"",NA
"ChloeMathes",7,"Read Recog","SUGAR","RIDDLE","Study2","U",40,39,"Study","Study Phase","",4928,"",NA
"ChloeMathes",7,"Read Recog","CHILL","COLD","Study2","F",32,29,"Study","Study Phase","",5632,"",NA
"ChloeMathes",7,"Read Recog","PANTS","COLLAR","Study2","M",8,19,"Study","Study Phase","",3246,"",NA
"ChloeMathes",7,"Read Recog","SOAP","DRINK","Study2","M",12,24,"Study","Study Phase","",5559,"",NA
"ChloeMathes",7,"Read Recog","NURSE","LAWYER","Study2","M",11,7,"Study","Study Phase","",3714,"",NA
"ChloeMathes",7,"Read Recog","EYES","SMELL","Study2","M",10,35,"Study","Study Phase","",6486,"",NA
"ChloeMathes",7,"Read Recog","LEAGUE","BASEBALL","Study2","F",29,16,"Study","Study Phase","",9694,"",NA
"ChloeMathes",7,"Read Recog","KING","VASE","Study2","U",36,42,"Study","Study Phase","",29478,"",NA
"ChloeMathes",7,"Read Recog","ATTIRE","CLOTHES","Study2","F",24,17,"Study","Study Phase","",3814,"",NA
"ChloeMathes",7,"Read Recog","VALLEY","PEAK","Study2","M",18,21,"Study","Study Phase","",2533,"",NA
"ChloeMathes",7,"Read Recog","HEAVY","FEATHER","Study2","M",13,10,"Study","Study Phase","",3085,"",NA
"ChloeMathes",7,"Read Recog","ART","WOLF","Study2","U",38,9,"Study","Study Phase","",2709,"",NA
"ChloeMathes",7,"Read Recog","SICK","HIDE","Study2","U",45,20,"Study","Study Phase","",4227,"",NA
"ChloeMathes",7,"Read Recog","WINDOW","KNOB","Study2","M",19,26,"Study","Study Phase","",4290,"",NA
"ChloeMathes",7,"Read Recog","BENCH","HORN","Study2","U",43,23,"Study","Study Phase","",14354,"",NA
"ChloeMathes",7,"Read Recog","BRIDGE","WATER","Study2","F",35,43,"Study","Study Phase","",3757,"",NA
"ChloeMathes",7,"Read Recog","DOCUMENT","PAPER","Study2","F",27,37,"Study","Study Phase","",4064,"",NA
"ChloeMathes",7,"Read Recog","SUMMER","SNOW","Study2","M",6,31,"Study","Study Phase","",20765,"",NA
"ChloeMathes",7,"Read Recog","RAZOR","MUSCLE","Study2","M",20,36,"Study","Study Phase","",9589,"",NA
"ChloeMathes",7,"Read Recog","BOTH","OUNCE","Study2","U",47,51,"Study","Study Phase","",1319,"",NA
"ChloeMathes",7,"Read Recog","BLAZE","FIRE","Study2","F",26,18,"Study","Study Phase","",1948,"",NA
"ChloeMathes",7,"Read Recog","LEASE","TOIL","Study2","U",46,40,"Study","Study Phase","",3358,"",NA
"ChloeMathes",7,"Read Recog","DIETARY","SACK","Study2","U",42,28,"Study","Study Phase","",3024,"",NA
"ChloeMathes",7,"Read Recog","MIRROR","CHILDREN","Study2","U",49,25,"Study","Study Phase","",2753,"",NA
"ChloeMathes",7,"Read Recog","HAPPY","CAR","Study2","U",37,46,"Study","Study Phase","",2976,"",NA
"ChloeMathes",7,"Read Recog","PUSH","CLUTTER","Study2","U",41,32,"Study","Study Phase","",3794,"",NA
"ChloeMathes",7,"Read Recog","OVEN","BASKET","Study2","M",16,50,"Study","Study Phase","",2364,"",NA
"ChloeMathes",7,"Read Recog","CHOP","CUT","Study2","F",22,15,"Study","Study Phase","",2992,"",NA
"ChloeMathes",7,"Read Recog","HORNET","STING","Study2","F",30,27,"Study","Study Phase","",35395,"",NA
"ChloeMathes",7,"Read Recog","WASP","BUG","Study2","F",34,11,"Study","Study Phase","",3348,"",NA
"DevyaniPatel",5,"Read Recog","LION","STRIPES","Study1","M",6,30,"Study","Study Phase","",2411,"",NA
"DevyaniPatel",5,"Read Recog","GIVE","STEAK","Study1","U",38,9,"Study","Study Phase","",3682,"",NA
"DevyaniPatel",5,"Read Recog","SCALP","HEAD","Study1","F",23,8,"Study","Study Phase","",1935,"",NA
"DevyaniPatel",5,"Read Recog","CAKE","HAND","Study1","U",49,43,"Study","Study Phase","",2102,"",NA
"DevyaniPatel",5,"Read Recog","WEDDING","FINGER","Study1","M",17,46,"Study","Study Phase","",3578,"",NA
"DevyaniPatel",5,"Read Recog","CRY","BOTTLE","Study1","M",16,45,"Study","Study Phase","",3256,"",NA
"DevyaniPatel",5,"Read Recog","MAZE","PHONE","Study1","U",42,20,"Study","Study Phase","",3483,"",NA
"DevyaniPatel",5,"Read Recog","HORSE","WHEEL","Study1","M",14,44,"Study","Study Phase","",3554,"",NA
"DevyaniPatel",5,"Read Recog","TREE","SYRUP","Study1","M",11,47,"Study","Study Phase","",4269,"",NA
"DevyaniPatel",5,"Read Recog","CREDIT","CARD","Study1","F",33,39,"Study","Study Phase","",2029,"",NA
"DevyaniPatel",5,"Read Recog","MULE","DONKEY","Study1","F",24,23,"Study","Study Phase","",3281,"",NA
"DevyaniPatel",5,"Read Recog","HARD","COTTON","Study1","M",20,36,"Study","Study Phase","",3565,"",NA
"DevyaniPatel",5,"Read Recog","TUNA","FISH","Study1","F",35,42,"Study","Study Phase","",3381,"",NA
"DevyaniPatel",5,"Read Recog","SIP","DRINK","Study1","F",32,37,"Study","Study Phase","",3548,"",NA
"DevyaniPatel",5,"Read Recog","WAGE","MONEY","Study1","F",22,48,"Study","Study Phase","",3542,"",NA
"DevyaniPatel",5,"Read Recog","BAT","BOUNCE","Study1","M",12,18,"Study","Study Phase","",3322,"",NA
"DevyaniPatel",5,"Read Recog","WAR","QUIET","Study1","M",8,38,"Study","Study Phase","",3149,"",NA
"DevyaniPatel",5,"Read Recog","SWAN","BIRD","Study1","F",26,21,"Study","Study Phase","",3115,"",NA
"DevyaniPatel",5,"Read Recog","CIRCLE","DANCE","Study1","M",13,28,"Study","Study Phase","",3245,"",NA
"DevyaniPatel",5,"Read Recog","ROOT","PLANT","Study1","F",25,10,"Study","Study Phase","",2960,"",NA
"DevyaniPatel",5,"Read Recog","BIRTHDAY","PIE","Study1","M",9,15,"Study","Study Phase","",3265,"",NA
"DevyaniPatel",5,"Read Recog","CEILING","CARPET","Study1","M",15,41,"Study","Study Phase","",2288,"",NA
"DevyaniPatel",5,"Read Recog","VEHICLE","CHARM","Study1","U",40,11,"Study","Study Phase","",3437,"",NA
"DevyaniPatel",5,"Read Recog","BEACH","BOX","Study1","M",7,13,"Study","Study Phase","",3298,"",NA
"DevyaniPatel",5,"Read Recog","AFFECTION","LOVE","Study1","F",31,34,"Study","Study Phase","",2563,"",NA
"DevyaniPatel",5,"Read Recog","SOON","BELT","Study1","U",46,24,"Study","Study Phase","",1697,"",NA
"DevyaniPatel",5,"Read Recog","ORCHID","FLOWER","Study1","F",34,25,"Study","Study Phase","",3886,"",NA
"DevyaniPatel",5,"Read Recog","TEMPERATURE","MORNING","Study1","U",48,7,"Study","Study Phase","",3473,"",NA
"DevyaniPatel",5,"Read Recog","HYGIENE","CLEAN","Study1","F",28,35,"Study","Study Phase","",3099,"",NA
"DevyaniPatel",5,"Read Recog","STRETCH","CLOTH","Study1","U",37,51,"Study","Study Phase","",3271,"",NA
"DevyaniPatel",5,"Read Recog","FUZZY","BANG","Study1","U",50,50,"Study","Study Phase","",3209,"",NA
"DevyaniPatel",5,"Read Recog","KEYS","ROD","Study1","U",45,27,"Study","Study Phase","",3286,"",NA
"DevyaniPatel",5,"Read Recog","SHELL","SHAKE","Study1","U",43,31,"Study","Study Phase","",3237,"",NA
"DevyaniPatel",5,"Read Recog","MEAT","KEYS","Study1","U",41,40,"Study","Study Phase","",2893,"",NA
"DevyaniPatel",5,"Read Recog","NAP","SLEEP","Study1","F",29,16,"Study","Study Phase","",3534,"",NA
"DevyaniPatel",5,"Read Recog","CRACKLE","ELECTION","Study1","U",39,49,"Study","Study Phase","",3442,"",NA
"DevyaniPatel",5,"Read Recog","TOOTH","HAIR","Study1","M",19,32,"Study","Study Phase","",2296,"",NA
"DevyaniPatel",5,"Read Recog","WORD","SENTENCE","Study1","F",27,17,"Study","Study Phase","",2918,"",NA
"DevyaniPatel",5,"Read Recog","ROUGH","SILK","Study1","M",10,33,"Study","Study Phase","",4403,"",NA
"DevyaniPatel",5,"Read Recog","LISTEN","FICTION","Study1","U",44,26,"Study","Study Phase","",1963,"",NA
"DevyaniPatel",5,"Read Recog","MULE","DONKEY","Study1","F",30,19,"Study","Study Phase","",1714,"",NA
"DevyaniPatel",5,"Read Recog","LITTER","TRASH","Study1","F",21,29,"Study","Study Phase","",2253,"",NA
"DevyaniPatel",5,"Read Recog","SIGN","TICK","Study1","U",47,12,"Study","Study Phase","",1673,"",NA
"DevyaniPatel",5,"Read Recog","MIRROR","MAROON","Study1","U",36,14,"Study","Study Phase","",2495,"",NA
"DevyaniPatel",5,"Read Recog","DAY","DARK","Study1","M",18,22,"Study","Study Phase","",2298,"",NA
"EmilyGarrett",5,"Read Recog","KEYS","ROD","Study1","U",45,15,"Study","Study Phase","",1675,"",NA
"EmilyGarrett",5,"Read Recog","STRETCH","CLOTH","Study1","U",37,39,"Study","Study Phase","",2072,"",NA
"EmilyGarrett",5,"Read Recog","SCALP","HEAD","Study1","F",23,19,"Study","Study Phase","",1876,"",NA
"EmilyGarrett",5,"Read Recog","WAR","QUIET","Study1","M",8,31,"Study","Study Phase","",1840,"",NA
"EmilyGarrett",5,"Read Recog","DAY","DARK","Study1","M",18,44,"Study","Study Phase","",1755,"",NA
"EmilyGarrett",5,"Read Recog","ORCHID","FLOWER","Study1","F",34,24,"Study","Study Phase","",2010,"",NA
"EmilyGarrett",5,"Read Recog","TREE","SYRUP","Study1","M",11,42,"Study","Study Phase","",2281,"",NA
"EmilyGarrett",5,"Read Recog","WORD","SENTENCE","Study1","F",27,47,"Study","Study Phase","",1861,"",NA
"EmilyGarrett",5,"Read Recog","TUNA","FISH","Study1","F",35,51,"Study","Study Phase","",1517,"",NA
"EmilyGarrett",5,"Read Recog","MAZE","PHONE","Study1","U",42,26,"Study","Study Phase","",4919,"",NA
"EmilyGarrett",5,"Read Recog","SOON","BELT","Study1","U",46,28,"Study","Study Phase","",2303,"",NA
"EmilyGarrett",5,"Read Recog","MULE","DONKEY","Study1","F",30,29,"Study","Study Phase","",1584,"",NA
"EmilyGarrett",5,"Read Recog","SHELL","SHAKE","Study1","U",43,12,"Study","Study Phase","",1230,"",NA
"EmilyGarrett",5,"Read Recog","CEILING","CARPET","Study1","M",15,35,"Study","Study Phase","",1092,"",NA
"EmilyGarrett",5,"Read Recog","CREDIT","CARD","Study1","F",33,16,"Study","Study Phase","",1709,"",NA
"EmilyGarrett",5,"Read Recog","BEACH","BOX","Study1","M",7,33,"Study","Study Phase","",1698,"",NA
"EmilyGarrett",5,"Read Recog","NAP","SLEEP","Study1","F",29,21,"Study","Study Phase","",1951,"",NA
"EmilyGarrett",5,"Read Recog","ROOT","PLANT","Study1","F",25,45,"Study","Study Phase","",1847,"",NA
"EmilyGarrett",5,"Read Recog","LISTEN","FICTION","Study1","U",44,34,"Study","Study Phase","",1497,"",NA
"EmilyGarrett",5,"Read Recog","WAGE","MONEY","Study1","F",22,13,"Study","Study Phase","",742,"",NA
"EmilyGarrett",5,"Read Recog","CRACKLE","ELECTION","Study1","U",39,32,"Study","Study Phase","",1573,"",NA
"EmilyGarrett",5,"Read Recog","SWAN","BIRD","Study1","F",26,37,"Study","Study Phase","",1423,"",NA
"EmilyGarrett",5,"Read Recog","LION","STRIPES","Study1","M",6,30,"Study","Study Phase","",1552,"",NA
"EmilyGarrett",5,"Read Recog","SIGN","TICK","Study1","U",47,46,"Study","Study Phase","",1450,"",NA
"EmilyGarrett",5,"Read Recog","BIRTHDAY","PIE","Study1","M",9,18,"Study","Study Phase","",1589,"",NA
"EmilyGarrett",5,"Read Recog","MIRROR","MAROON","Study1","U",36,17,"Study","Study Phase","",1323,"",NA
"EmilyGarrett",5,"Read Recog","MULE","DONKEY","Study1","F",24,23,"Study","Study Phase","",1897,"",NA
"EmilyGarrett",5,"Read Recog","CAKE","HAND","Study1","U",49,43,"Study","Study Phase","",4527,"",NA
"EmilyGarrett",5,"Read Recog","TEMPERATURE","MORNING","Study1","U",48,11,"Study","Study Phase","",1103,"",NA
"EmilyGarrett",5,"Read Recog","CIRCLE","DANCE","Study1","M",13,20,"Study","Study Phase","",1093,"",NA
"EmilyGarrett",5,"Read Recog","HARD","COTTON","Study1","M",20,10,"Study","Study Phase","",982,"",NA
"EmilyGarrett",5,"Read Recog","VEHICLE","CHARM","Study1","U",40,7,"Study","Study Phase","",923,"",NA
"EmilyGarrett",5,"Read Recog","HYGIENE","CLEAN","Study1","F",28,49,"Study","Study Phase","",1268,"",NA
"EmilyGarrett",5,"Read Recog","HORSE","WHEEL","Study1","M",14,25,"Study","Study Phase","",1624,"",NA
"EmilyGarrett",5,"Read Recog","TOOTH","HAIR","Study1","M",19,48,"Study","Study Phase","",1557,"",NA
"EmilyGarrett",5,"Read Recog","FUZZY","BANG","Study1","U",50,40,"Study","Study Phase","",1158,"",NA
"EmilyGarrett",5,"Read Recog","BAT","BOUNCE","Study1","M",12,14,"Study","Study Phase","",1321,"",NA
"EmilyGarrett",5,"Read Recog","MEAT","KEYS","Study1","U",41,41,"Study","Study Phase","",1384,"",NA
"EmilyGarrett",5,"Read Recog","LITTER","TRASH","Study1","F",21,36,"Study","Study Phase","",1203,"",NA
"EmilyGarrett",5,"Read Recog","ROUGH","SILK","Study1","M",10,38,"Study","Study Phase","",1496,"",NA
"EmilyGarrett",5,"Read Recog","WEDDING","FINGER","Study1","M",17,50,"Study","Study Phase","",1730,"",NA
"EmilyGarrett",5,"Read Recog","AFFECTION","LOVE","Study1","F",31,9,"Study","Study Phase","",2587,"",NA
"EmilyGarrett",5,"Read Recog","GIVE","STEAK","Study1","U",38,8,"Study","Study Phase","",985,"",NA
"EmilyGarrett",5,"Read Recog","CRY","BOTTLE","Study1","M",16,22,"Study","Study Phase","",871,"",NA
"EmilyGarrett",5,"Read Recog","SIP","DRINK","Study1","F",32,27,"Study","Study Phase","",1374,"",NA
"FaithKeller",7,"Read Recog","TRAP","CAVE","Study2","M",15,12,"Study","Study Phase","",2026,"",NA
"FaithKeller",7,"Read Recog","SOAP","DRINK","Study2","M",12,42,"Study","Study Phase","",1781,"",NA
"FaithKeller",7,"Read Recog","DEATH","BUSINESS","Study2","U",44,51,"Study","Study Phase","",1156,"",NA
"FaithKeller",7,"Read Recog","OVEN","BASKET","Study2","M",16,32,"Study","Study Phase","",4050,"",NA
"FaithKeller",7,"Read Recog","CACTUS","PLANT","Study2","F",21,10,"Study","Study Phase","",3909,"",NA
"FaithKeller",7,"Read Recog","CHISEL","HAMMER","Study2","F",23,15,"Study","Study Phase","",2812,"",NA
"FaithKeller",7,"Read Recog","BOTH","OUNCE","Study2","U",47,18,"Study","Study Phase","",2255,"",NA
"FaithKeller",7,"Read Recog","NURSE","LAWYER","Study2","M",11,8,"Study","Study Phase","",2166,"",NA
"FaithKeller",7,"Read Recog","LEAGUE","BASEBALL","Study2","F",29,17,"Study","Study Phase","",3153,"",NA
"FaithKeller",7,"Read Recog","BRIDGE","WATER","Study2","F",35,28,"Study","Study Phase","",2475,"",NA
"FaithKeller",7,"Read Recog","GRILL","THIGH","Study2","M",17,34,"Study","Study Phase","",1460,"",NA
"FaithKeller",7,"Read Recog","PANTS","COLLAR","Study2","M",8,36,"Study","Study Phase","",4927,"",NA
"FaithKeller",7,"Read Recog","KING","VASE","Study2","U",36,26,"Study","Study Phase","",3269,"",NA
"FaithKeller",7,"Read Recog","RAZOR","MUSCLE","Study2","M",20,9,"Study","Study Phase","",4418,"",NA
"FaithKeller",7,"Read Recog","STRONG","ACCIDENT","Study2","U",39,24,"Study","Study Phase","",2620,"",NA
"FaithKeller",7,"Read Recog","BLAZE","FIRE","Study2","F",26,49,"Study","Study Phase","",4574,"",NA
"FaithKeller",7,"Read Recog","LEASE","TOIL","Study2","U",46,19,"Study","Study Phase","",4874,"",NA
"FaithKeller",7,"Read Recog","CHILL","COLD","Study2","F",32,47,"Study","Study Phase","",2257,"",NA
"FaithKeller",7,"Read Recog","MIRROR","CHILDREN","Study2","U",49,44,"Study","Study Phase","",7394,"",NA
"FaithKeller",7,"Read Recog","SICK","HIDE","Study2","U",45,14,"Study","Study Phase","",5608,"",NA
"FaithKeller",7,"Read Recog","HEAVY","FEATHER","Study2","M",13,30,"Study","Study Phase","",6245,"",NA
"FaithKeller",7,"Read Recog","DOCUMENT","PAPER","Study2","F",27,23,"Study","Study Phase","",4989,"",NA
"FaithKeller",7,"Read Recog","BENCH","HORN","Study2","U",43,43,"Study","Study Phase","",6887,"",NA
"FaithKeller",7,"Read Recog","ATTIRE","CLOTHES","Study2","F",24,27,"Study","Study Phase","",7000,"",NA
"FaithKeller",7,"Read Recog","SUGAR","RIDDLE","Study2","U",40,39,"Study","Study Phase","",4018,"",NA
"FaithKeller",7,"Read Recog","SUMMER","SNOW","Study2","M",6,22,"Study","Study Phase","",4454,"",NA
"FaithKeller",7,"Read Recog","CHERRY","RED","Study2","F",25,35,"Study","Study Phase","",5326,"",NA
"FaithKeller",7,"Read Recog","FEUD","FIGHT","Study2","F",31,31,"Study","Study Phase","",3263,"",NA
"FaithKeller",7,"Read Recog","ART","WOLF","Study2","U",38,25,"Study","Study Phase","",3363,"",NA
"FaithKeller",7,"Read Recog","SCHOOL","STOP","Study2","M",7,11,"Study","Study Phase","",5854,"",NA
"FaithKeller",7,"Read Recog","WINDOW","KNOB","Study2","M",19,21,"Study","Study Phase","",3641,"",NA
"FaithKeller",7,"Read Recog","HORNET","STING","Study2","F",30,33,"Study","Study Phase","",4573,"",NA
"FaithKeller",7,"Read Recog","INCENSE","SMELL","Study2","F",28,13,"Study","Study Phase","",2960,"",NA
"FaithKeller",7,"Read Recog","RAKE","SEED","Study2","M",14,38,"Study","Study Phase","",4651,"",NA
"FaithKeller",7,"Read Recog","HAPPY","CAR","Study2","U",37,29,"Study","Study Phase","",4471,"",NA
"FaithKeller",7,"Read Recog","WASP","BUG","Study2","F",34,41,"Study","Study Phase","",5353,"",NA
"FaithKeller",7,"Read Recog","DIETARY","SACK","Study2","U",42,7,"Study","Study Phase","",3790,"",NA
"FaithKeller",7,"Read Recog","ARTERY","BRONZE","Study2","U",48,46,"Study","Study Phase","",4166,"",NA
"FaithKeller",7,"Read Recog","HERD","COW","Study2","F",33,50,"Study","Study Phase","",3564,"",NA
"FaithKeller",7,"Read Recog","EYES","SMELL","Study2","M",10,48,"Study","Study Phase","",7110,"",NA
"FaithKeller",7,"Read Recog","CASH","LEG","Study2","U",50,37,"Study","Study Phase","",7790,"",NA
"FaithKeller",7,"Read Recog","PUSH","CLUTTER","Study2","U",41,45,"Study","Study Phase","",4567,"",NA
"FaithKeller",7,"Read Recog","REALITY","ISLAND","Study2","M",9,40,"Study","Study Phase","",5400,"",NA
"FaithKeller",7,"Read Recog","CHOP","CUT","Study2","F",22,20,"Study","Study Phase","",4792,"",NA
"FaithKeller",7,"Read Recog","VALLEY","PEAK","Study2","M",18,16,"Study","Study Phase","",5146,"",NA
"GabryeleMcCroskey",5,"Read Recog","STRETCH","CLOTH","Study1","U",37,26,"Study","Study Phase","",4308,"",NA
"GabryeleMcCroskey",5,"Read Recog","TUNA","FISH","Study1","F",35,41,"Study","Study Phase","",4167,"",NA
"GabryeleMcCroskey",5,"Read Recog","FUZZY","BANG","Study1","U",50,39,"Study","Study Phase","",6449,"",NA
"GabryeleMcCroskey",5,"Read Recog","MULE","DONKEY","Study1","F",24,50,"Study","Study Phase","",16239,"",NA
"GabryeleMcCroskey",5,"Read Recog","SOON","BELT","Study1","U",46,18,"Study","Study Phase","",5581,"",NA
"GabryeleMcCroskey",5,"Read Recog","GIVE","STEAK","Study1","U",38,10,"Study","Study Phase","",4350,"",NA
"GabryeleMcCroskey",5,"Read Recog","MULE","DONKEY","Study1","F",30,22,"Study","Study Phase","",4467,"",NA
"GabryeleMcCroskey",5,"Read Recog","AFFECTION","LOVE","Study1","F",31,31,"Study","Study Phase","",4262,"",NA
"GabryeleMcCroskey",5,"Read Recog","WORD","SENTENCE","Study1","F",27,28,"Study","Study Phase","",3316,"",NA
"GabryeleMcCroskey",5,"Read Recog","SIGN","TICK","Study1","U",47,40,"Study","Study Phase","",4128,"",NA
"GabryeleMcCroskey",5,"Read Recog","LITTER","TRASH","Study1","F",21,8,"Study","Study Phase","",4052,"",NA
"GabryeleMcCroskey",5,"Read Recog","TOOTH","HAIR","Study1","M",19,17,"Study","Study Phase","",4717,"",NA
"GabryeleMcCroskey",5,"Read Recog","MAZE","PHONE","Study1","U",42,14,"Study","Study Phase","",4999,"",NA
"GabryeleMcCroskey",5,"Read Recog","SCALP","HEAD","Study1","F",23,33,"Study","Study Phase","",5049,"",NA
"GabryeleMcCroskey",5,"Read Recog","CEILING","CARPET","Study1","M",15,20,"Study","Study Phase","",2785,"",NA
"GabryeleMcCroskey",5,"Read Recog","CRY","BOTTLE","Study1","M",16,9,"Study","Study Phase","",4046,"",NA
"GabryeleMcCroskey",5,"Read Recog","HARD","COTTON","Study1","M",20,25,"Study","Study Phase","",3165,"",NA
"GabryeleMcCroskey",5,"Read Recog","BAT","BOUNCE","Study1","M",12,38,"Study","Study Phase","",3184,"",NA
"GabryeleMcCroskey",5,"Read Recog","CRACKLE","ELECTION","Study1","U",39,7,"Study","Study Phase","",5385,"",NA
"GabryeleMcCroskey",5,"Read Recog","TEMPERATURE","MORNING","Study1","U",48,16,"Study","Study Phase","",1016,"",NA
"GabryeleMcCroskey",5,"Read Recog","ROOT","PLANT","Study1","F",25,30,"Study","Study Phase","",5960,"",NA
"GabryeleMcCroskey",5,"Read Recog","BIRTHDAY","PIE","Study1","M",9,13,"Study","Study Phase","",5096,"",NA
"GabryeleMcCroskey",5,"Read Recog","TREE","SYRUP","Study1","M",11,29,"Study","Study Phase","",4670,"",NA
"GabryeleMcCroskey",5,"Read Recog","HORSE","WHEEL","Study1","M",14,51,"Study","Study Phase","",2904,"",NA
"GabryeleMcCroskey",5,"Read Recog","ROUGH","SILK","Study1","M",10,37,"Study","Study Phase","",4085,"",NA
"GabryeleMcCroskey",5,"Read Recog","ORCHID","FLOWER","Study1","F",34,19,"Study","Study Phase","",5537,"",NA
"GabryeleMcCroskey",5,"Read Recog","BEACH","BOX","Study1","M",7,36,"Study","Study Phase","",3471,"",NA
"GabryeleMcCroskey",5,"Read Recog","WAR","QUIET","Study1","M",8,11,"Study","Study Phase","",3957,"",NA
"GabryeleMcCroskey",5,"Read Recog","WAGE","MONEY","Study1","F",22,27,"Study","Study Phase","",4779,"",NA
"GabryeleMcCroskey",5,"Read Recog","KEYS","ROD","Study1","U",45,44,"Study","Study Phase","",5622,"",NA
"GabryeleMcCroskey",5,"Read Recog","DAY","DARK","Study1","M",18,46,"Study","Study Phase","",4887,"",NA
"GabryeleMcCroskey",5,"Read Recog","SIP","DRINK","Study1","F",32,21,"Study","Study Phase","",5087,"",NA
"GabryeleMcCroskey",5,"Read Recog","WEDDING","FINGER","Study1","M",17,43,"Study","Study Phase","",5217,"",NA
"GabryeleMcCroskey",5,"Read Recog","VEHICLE","CHARM","Study1","U",40,34,"Study","Study Phase","",8918,"",NA
"GabryeleMcCroskey",5,"Read Recog","CREDIT","CARD","Study1","F",33,45,"Study","Study Phase","",1613,"",NA
"GabryeleMcCroskey",5,"Read Recog","LISTEN","FICTION","Study1","U",44,15,"Study","Study Phase","",8678,"",NA
"GabryeleMcCroskey",5,"Read Recog","LION","STRIPES","Study1","M",6,23,"Study","Study Phase","",9051,"",NA
"GabryeleMcCroskey",5,"Read Recog","MIRROR","MAROON","Study1","U",36,42,"Study","Study Phase","",4284,"",NA
"GabryeleMcCroskey",5,"Read Recog","HYGIENE","CLEAN","Study1","F",28,12,"Study","Study Phase","",2786,"",NA
"GabryeleMcCroskey",5,"Read Recog","MEAT","KEYS","Study1","U",41,35,"Study","Study Phase","",3418,"",NA
"GabryeleMcCroskey",5,"Read Recog","NAP","SLEEP","Study1","F",29,32,"Study","Study Phase","",4108,"",NA
"GabryeleMcCroskey",5,"Read Recog","CIRCLE","DANCE","Study1","M",13,49,"Study","Study Phase","",2568,"",NA
"GabryeleMcCroskey",5,"Read Recog","CAKE","HAND","Study1","U",49,47,"Study","Study Phase","",2753,"",NA
"GabryeleMcCroskey",5,"Read Recog","SHELL","SHAKE","Study1","U",43,48,"Study","Study Phase","",1973,"",NA
"GabryeleMcCroskey",5,"Read Recog","SWAN","BIRD","Study1","F",26,24,"Study","Study Phase","",1706,"",NA
"GraceHandler",5,"Read Recog","BAT","BOUNCE","Study1","M",12,33,"Study","Study Phase","",1295,"",NA
"GraceHandler",5,"Read Recog","DAY","DARK","Study1","M",18,48,"Study","Study Phase","",858,"",NA
"GraceHandler",5,"Read Recog","CRY","BOTTLE","Study1","M",16,19,"Study","Study Phase","",1570,"",NA
"GraceHandler",5,"Read Recog","CEILING","CARPET","Study1","M",15,47,"Study","Study Phase","",988,"",NA
"GraceHandler",5,"Read Recog","ROUGH","SILK","Study1","M",10,41,"Study","Study Phase","",1160,"",NA
"GraceHandler",5,"Read Recog","NAP","SLEEP","Study1","F",29,50,"Study","Study Phase","",816,"",NA
"GraceHandler",5,"Read Recog","WAR","QUIET","Study1","M",8,23,"Study","Study Phase","",905,"",NA
"GraceHandler",5,"Read Recog","CIRCLE","DANCE","Study1","M",13,17,"Study","Study Phase","",1576,"",NA
"GraceHandler",5,"Read Recog","MAZE","PHONE","Study1","U",42,18,"Study","Study Phase","",779,"",NA
"GraceHandler",5,"Read Recog","SIGN","TICK","Study1","U",47,24,"Study","Study Phase","",819,"",NA
"GraceHandler",5,"Read Recog","STRETCH","CLOTH","Study1","U",37,28,"Study","Study Phase","",1631,"",NA
"GraceHandler",5,"Read Recog","VEHICLE","CHARM","Study1","U",40,51,"Study","Study Phase","",1763,"",NA
"GraceHandler",5,"Read Recog","LION","STRIPES","Study1","M",6,27,"Study","Study Phase","",6598,"",NA
"GraceHandler",5,"Read Recog","KEYS","ROD","Study1","U",45,31,"Study","Study Phase","",502,"",NA
"GraceHandler",5,"Read Recog","MULE","DONKEY","Study1","F",30,13,"Study","Study Phase","",804,"",NA
"GraceHandler",5,"Read Recog","WEDDING","FINGER","Study1","M",17,12,"Study","Study Phase","",666,"",NA
"GraceHandler",5,"Read Recog","BEACH","BOX","Study1","M",7,43,"Study","Study Phase","",841,"",NA
"GraceHandler",5,"Read Recog","SHELL","SHAKE","Study1","U",43,38,"Study","Study Phase","",628,"",NA
"GraceHandler",5,"Read Recog","HARD","COTTON","Study1","M",20,25,"Study","Study Phase","",1139,"",NA
"GraceHandler",5,"Read Recog","WAGE","MONEY","Study1","F",22,21,"Study","Study Phase","",1310,"",NA
"GraceHandler",5,"Read Recog","SCALP","HEAD","Study1","F",23,16,"Study","Study Phase","",1381,"",NA
"GraceHandler",5,"Read Recog","AFFECTION","LOVE","Study1","F",31,39,"Study","Study Phase","",969,"",NA
"GraceHandler",5,"Read Recog","ROOT","PLANT","Study1","F",25,37,"Study","Study Phase","",730,"",NA
"GraceHandler",5,"Read Recog","WORD","SENTENCE","Study1","F",27,7,"Study","Study Phase","",910,"",NA
"GraceHandler",5,"Read Recog","MULE","DONKEY","Study1","F",24,35,"Study","Study Phase","",954,"",NA
"GraceHandler",5,"Read Recog","CRACKLE","ELECTION","Study1","U",39,44,"Study","Study Phase","",794,"",NA
"GraceHandler",5,"Read Recog","HORSE","WHEEL","Study1","M",14,46,"Study","Study Phase","",2380,"",NA
"GraceHandler",5,"Read Recog","MEAT","KEYS","Study1","U",41,8,"Study","Study Phase","",631,"",NA
"GraceHandler",5,"Read Recog","TREE","SYRUP","Study1","M",11,11,"Study","Study Phase","",1000,"",NA
"GraceHandler",5,"Read Recog","ORCHID","FLOWER","Study1","F",34,29,"Study","Study Phase","",1107,"",NA
"GraceHandler",5,"Read Recog","GIVE","STEAK","Study1","U",38,9,"Study","Study Phase","",895,"",NA
"GraceHandler",5,"Read Recog","MIRROR","MAROON","Study1","U",36,26,"Study","Study Phase","",900,"",NA
"GraceHandler",5,"Read Recog","SIP","DRINK","Study1","F",32,49,"Study","Study Phase","",698,"",NA
"GraceHandler",5,"Read Recog","SWAN","BIRD","Study1","F",26,20,"Study","Study Phase","",463,"",NA
"GraceHandler",5,"Read Recog","LITTER","TRASH","Study1","F",21,42,"Study","Study Phase","",698,"",NA
"GraceHandler",5,"Read Recog","TOOTH","HAIR","Study1","M",19,45,"Study","Study Phase","",1188,"",NA
"GraceHandler",5,"Read Recog","CREDIT","CARD","Study1","F",33,15,"Study","Study Phase","",788,"",NA
"GraceHandler",5,"Read Recog","SOON","BELT","Study1","U",46,36,"Study","Study Phase","",783,"",NA
"GraceHandler",5,"Read Recog","CAKE","HAND","Study1","U",49,30,"Study","Study Phase","",718,"",NA
"GraceHandler",5,"Read Recog","BIRTHDAY","PIE","Study1","M",9,34,"Study","Study Phase","",933,"",NA
"GraceHandler",5,"Read Recog","FUZZY","BANG","Study1","U",50,10,"Study","Study Phase","",719,"",NA
"GraceHandler",5,"Read Recog","TEMPERATURE","MORNING","Study1","U",48,14,"Study","Study Phase","",892,"",NA
"GraceHandler",5,"Read Recog","HYGIENE","CLEAN","Study1","F",28,22,"Study","Study Phase","",821,"",NA
"GraceHandler",5,"Read Recog","TUNA","FISH","Study1","F",35,32,"Study","Study Phase","",989,"",NA
"GraceHandler",5,"Read Recog","LISTEN","FICTION","Study1","U",44,40,"Study","Study Phase","",741,"",NA
"IsabellaLittle",7,"Read Recog","RAZOR","MUSCLE","Study2","M",20,29,"Study","Study Phase","",2065,"",NA
"IsabellaLittle",7,"Read Recog","CHERRY","RED","Study2","F",25,33,"Study","Study Phase","",1847,"",NA
"IsabellaLittle",7,"Read Recog","WINDOW","KNOB","Study2","M",19,9,"Study","Study Phase","",1968,"",NA
"IsabellaLittle",7,"Read Recog","SCHOOL","STOP","Study2","M",7,31,"Study","Study Phase","",1754,"",NA
"IsabellaLittle",7,"Read Recog","FEUD","FIGHT","Study2","F",31,39,"Study","Study Phase","",1600,"",NA
"IsabellaLittle",7,"Read Recog","RAKE","SEED","Study2","M",14,11,"Study","Study Phase","",2818,"",NA
"IsabellaLittle",7,"Read Recog","CACTUS","PLANT","Study2","F",21,30,"Study","Study Phase","",2771,"",NA
"IsabellaLittle",7,"Read Recog","SICK","HIDE","Study2","U",45,37,"Study","Study Phase","",1599,"",NA
"IsabellaLittle",7,"Read Recog","TRAP","CAVE","Study2","M",15,27,"Study","Study Phase","",1878,"",NA
"IsabellaLittle",7,"Read Recog","PANTS","COLLAR","Study2","M",8,20,"Study","Study Phase","",2043,"",NA
"IsabellaLittle",7,"Read Recog","DIETARY","SACK","Study2","U",42,18,"Study","Study Phase","",3498,"",NA
"IsabellaLittle",7,"Read Recog","STRONG","ACCIDENT","Study2","U",39,43,"Study","Study Phase","",3149,"",NA
"IsabellaLittle",7,"Read Recog","CASH","LEG","Study2","U",50,40,"Study","Study Phase","",2773,"",NA
"IsabellaLittle",7,"Read Recog","PUSH","CLUTTER","Study2","U",41,13,"Study","Study Phase","",2457,"",NA
"IsabellaLittle",7,"Read Recog","VALLEY","PEAK","Study2","M",18,44,"Study","Study Phase","",1889,"",NA
"IsabellaLittle",7,"Read Recog","HEAVY","FEATHER","Study2","M",13,24,"Study","Study Phase","",3446,"",NA
"IsabellaLittle",7,"Read Recog","LEAGUE","BASEBALL","Study2","F",29,22,"Study","Study Phase","",2121,"",NA
"IsabellaLittle",7,"Read Recog","INCENSE","SMELL","Study2","F",28,50,"Study","Study Phase","",2443,"",NA
"IsabellaLittle",7,"Read Recog","HERD","COW","Study2","F",33,7,"Study","Study Phase","",2118,"",NA
"IsabellaLittle",7,"Read Recog","MIRROR","CHILDREN","Study2","U",49,35,"Study","Study Phase","",9307,"",NA
"IsabellaLittle",7,"Read Recog","BOTH","OUNCE","Study2","U",47,19,"Study","Study Phase","",2323,"",NA
"IsabellaLittle",7,"Read Recog","HORNET","STING","Study2","F",30,48,"Study","Study Phase","",1772,"",NA
"IsabellaLittle",7,"Read Recog","BENCH","HORN","Study2","U",43,46,"Study","Study Phase","",2699,"",NA
"IsabellaLittle",7,"Read Recog","ART","WOLF","Study2","U",38,15,"Study","Study Phase","",1569,"",NA
"IsabellaLittle",7,"Read Recog","EYES","SMELL","Study2","M",10,14,"Study","Study Phase","",1650,"",NA
"IsabellaLittle",7,"Read Recog","CHILL","COLD","Study2","F",32,42,"Study","Study Phase","",1738,"",NA
"IsabellaLittle",7,"Read Recog","GRILL","THIGH","Study2","M",17,49,"Study","Study Phase","",2047,"",NA
"IsabellaLittle",7,"Read Recog","DOCUMENT","PAPER","Study2","F",27,8,"Study","Study Phase","",1737,"",NA
"IsabellaLittle",7,"Read Recog","ATTIRE","CLOTHES","Study2","F",24,38,"Study","Study Phase","",1951,"",NA
"IsabellaLittle",7,"Read Recog","CHOP","CUT","Study2","F",22,12,"Study","Study Phase","",1553,"",NA
"IsabellaLittle",7,"Read Recog","WASP","BUG","Study2","F",34,32,"Study","Study Phase","",2344,"",NA
"IsabellaLittle",7,"Read Recog","DEATH","BUSINESS","Study2","U",44,47,"Study","Study Phase","",2538,"",NA
"IsabellaLittle",7,"Read Recog","ARTERY","BRONZE","Study2","U",48,17,"Study","Study Phase","",2817,"",NA
"IsabellaLittle",7,"Read Recog","LEASE","TOIL","Study2","U",46,26,"Study","Study Phase","",1660,"",NA
"IsabellaLittle",7,"Read Recog","SUGAR","RIDDLE","Study2","U",40,23,"Study","Study Phase","",2064,"",NA
"IsabellaLittle",7,"Read Recog","SOAP","DRINK","Study2","M",12,28,"Study","Study Phase","",1844,"",NA
"IsabellaLittle",7,"Read Recog","OVEN","BASKET","Study2","M",16,36,"Study","Study Phase","",1735,"",NA
"IsabellaLittle",7,"Read Recog","REALITY","ISLAND","Study2","M",9,34,"Study","Study Phase","",2418,"",NA
"IsabellaLittle",7,"Read Recog","CHISEL","HAMMER","Study2","F",23,45,"Study","Study Phase","",2145,"",NA
"IsabellaLittle",7,"Read Recog","BRIDGE","WATER","Study2","F",35,10,"Study","Study Phase","",2203,"",NA
"IsabellaLittle",7,"Read Recog","NURSE","LAWYER","Study2","M",11,51,"Study","Study Phase","",2952,"",NA
"IsabellaLittle",7,"Read Recog","HAPPY","CAR","Study2","U",37,41,"Study","Study Phase","",1841,"",NA
"IsabellaLittle",7,"Read Recog","BLAZE","FIRE","Study2","F",26,21,"Study","Study Phase","",2266,"",NA
"IsabellaLittle",7,"Read Recog","KING","VASE","Study2","U",36,25,"Study","Study Phase","",2951,"",NA
"IsabellaLittle",7,"Read Recog","SUMMER","SNOW","Study2","M",6,16,"Study","Study Phase","",2892,"",NA
"jazzminescott",5,"Read Recog","CRACKLE","ELECTION","Study1","U",39,21,"Study","Study Phase","",2271,"",NA
"jazzminescott",5,"Read Recog","SIP","DRINK","Study1","F",32,30,"Study","Study Phase","",3105,"",NA
"jazzminescott",5,"Read Recog","GIVE","STEAK","Study1","U",38,47,"Study","Study Phase","",2840,"",NA
"jazzminescott",5,"Read Recog","HORSE","WHEEL","Study1","M",14,25,"Study","Study Phase","",2918,"",NA
"jazzminescott",5,"Read Recog","HYGIENE","CLEAN","Study1","F",28,9,"Study","Study Phase","",1763,"",NA
"jazzminescott",5,"Read Recog","MIRROR","MAROON","Study1","U",36,10,"Study","Study Phase","",2371,"",NA
"jazzminescott",5,"Read Recog","MAZE","PHONE","Study1","U",42,49,"Study","Study Phase","",1872,"",NA
"jazzminescott",5,"Read Recog","MULE","DONKEY","Study1","F",30,38,"Study","Study Phase","",1906,"",NA
"jazzminescott",5,"Read Recog","TREE","SYRUP","Study1","M",11,17,"Study","Study Phase","",2783,"",NA
"jazzminescott",5,"Read Recog","STRETCH","CLOTH","Study1","U",37,7,"Study","Study Phase","",2079,"",NA
"jazzminescott",5,"Read Recog","ROUGH","SILK","Study1","M",10,15,"Study","Study Phase","",1642,"",NA
"jazzminescott",5,"Read Recog","HARD","COTTON","Study1","M",20,13,"Study","Study Phase","",2003,"",NA
"jazzminescott",5,"Read Recog","WEDDING","FINGER","Study1","M",17,44,"Study","Study Phase","",2052,"",NA
"jazzminescott",5,"Read Recog","ORCHID","FLOWER","Study1","F",34,37,"Study","Study Phase","",1573,"",NA
"jazzminescott",5,"Read Recog","MULE","DONKEY","Study1","F",24,27,"Study","Study Phase","",1520,"",NA
"jazzminescott",5,"Read Recog","DAY","DARK","Study1","M",18,42,"Study","Study Phase","",1971,"",NA
"jazzminescott",5,"Read Recog","ROOT","PLANT","Study1","F",25,11,"Study","Study Phase","",1292,"",NA
"jazzminescott",5,"Read Recog","WAGE","MONEY","Study1","F",22,32,"Study","Study Phase","",2041,"",NA
"jazzminescott",5,"Read Recog","TEMPERATURE","MORNING","Study1","U",48,16,"Study","Study Phase","",2356,"",NA
"jazzminescott",5,"Read Recog","LION","STRIPES","Study1","M",6,39,"Study","Study Phase","",9388,"",NA
"jazzminescott",5,"Read Recog","SOON","BELT","Study1","U",46,20,"Study","Study Phase","",1514,"",NA
"jazzminescott",5,"Read Recog","WORD","SENTENCE","Study1","F",27,18,"Study","Study Phase","",1481,"",NA
"jazzminescott",5,"Read Recog","SHELL","SHAKE","Study1","U",43,46,"Study","Study Phase","",1829,"",NA
"jazzminescott",5,"Read Recog","BAT","BOUNCE","Study1","M",12,31,"Study","Study Phase","",1858,"",NA
"jazzminescott",5,"Read Recog","CREDIT","CARD","Study1","F",33,29,"Study","Study Phase","",1406,"",NA
"jazzminescott",5,"Read Recog","TUNA","FISH","Study1","F",35,33,"Study","Study Phase","",1773,"",NA
"jazzminescott",5,"Read Recog","CIRCLE","DANCE","Study1","M",13,19,"Study","Study Phase","",1538,"",NA
"jazzminescott",5,"Read Recog","CRY","BOTTLE","Study1","M",16,43,"Study","Study Phase","",841,"",NA
"jazzminescott",5,"Read Recog","TOOTH","HAIR","Study1","M",19,8,"Study","Study Phase","",2655,"",NA
"jazzminescott",5,"Read Recog","LISTEN","FICTION","Study1","U",44,23,"Study","Study Phase","",1619,"",NA
"jazzminescott",5,"Read Recog","BIRTHDAY","PIE","Study1","M",9,41,"Study","Study Phase","",1525,"",NA
"jazzminescott",5,"Read Recog","NAP","SLEEP","Study1","F",29,51,"Study","Study Phase","",1273,"",NA
"jazzminescott",5,"Read Recog","AFFECTION","LOVE","Study1","F",31,28,"Study","Study Phase","",1082,"",NA
"jazzminescott",5,"Read Recog","SWAN","BIRD","Study1","F",26,35,"Study","Study Phase","",1336,"",NA
"jazzminescott",5,"Read Recog","CAKE","HAND","Study1","U",49,34,"Study","Study Phase","",2165,"",NA
"jazzminescott",5,"Read Recog","CEILING","CARPET","Study1","M",15,48,"Study","Study Phase","",3582,"",NA
"jazzminescott",5,"Read Recog","KEYS","ROD","Study1","U",45,40,"Study","Study Phase","",1879,"",NA
"jazzminescott",5,"Read Recog","LITTER","TRASH","Study1","F",21,36,"Study","Study Phase","",2652,"",NA
"jazzminescott",5,"Read Recog","VEHICLE","CHARM","Study1","U",40,24,"Study","Study Phase","",1686,"",NA
"jazzminescott",5,"Read Recog","BEACH","BOX","Study1","M",7,45,"Study","Study Phase","",1687,"",NA
"jazzminescott",5,"Read Recog","WAR","QUIET","Study1","M",8,50,"Study","Study Phase","",1072,"",NA
"jazzminescott",5,"Read Recog","SCALP","HEAD","Study1","F",23,22,"Study","Study Phase","",1042,"",NA
"jazzminescott",5,"Read Recog","MEAT","KEYS","Study1","U",41,26,"Study","Study Phase","",1782,"",NA
"jazzminescott",5,"Read Recog","FUZZY","BANG","Study1","U",50,12,"Study","Study Phase","",1427,"",NA
"jazzminescott",5,"Read Recog","SIGN","TICK","Study1","U",47,14,"Study","Study Phase","",2456,"",NA
"JoAsiaBurkes",7,"Read Recog","BOTH","OUNCE","Study2","U",47,20,"Study","Study Phase","",1933,"",NA
"JoAsiaBurkes",7,"Read Recog","SUGAR","RIDDLE","Study2","U",40,30,"Study","Study Phase","",2078,"",NA
"JoAsiaBurkes",7,"Read Recog","SOAP","DRINK","Study2","M",12,43,"Study","Study Phase","",2019,"",NA
"JoAsiaBurkes",7,"Read Recog","CASH","LEG","Study2","U",50,12,"Study","Study Phase","",1833,"",NA
"JoAsiaBurkes",7,"Read Recog","OVEN","BASKET","Study2","M",16,18,"Study","Study Phase","",1940,"",NA
"JoAsiaBurkes",7,"Read Recog","CHILL","COLD","Study2","F",32,10,"Study","Study Phase","",1838,"",NA
"JoAsiaBurkes",7,"Read Recog","DIETARY","SACK","Study2","U",42,50,"Study","Study Phase","",1821,"",NA
"JoAsiaBurkes",7,"Read Recog","HORNET","STING","Study2","F",30,24,"Study","Study Phase","",1692,"",NA
"JoAsiaBurkes",7,"Read Recog","BENCH","HORN","Study2","U",43,45,"Study","Study Phase","",1478,"",NA
"JoAsiaBurkes",7,"Read Recog","PANTS","COLLAR","Study2","M",8,19,"Study","Study Phase","",1768,"",NA
"JoAsiaBurkes",7,"Read Recog","CHISEL","HAMMER","Study2","F",23,11,"Study","Study Phase","",1598,"",NA
"JoAsiaBurkes",7,"Read Recog","GRILL","THIGH","Study2","M",17,27,"Study","Study Phase","",1783,"",NA
"JoAsiaBurkes",7,"Read Recog","CHERRY","RED","Study2","F",25,37,"Study","Study Phase","",1660,"",NA
"JoAsiaBurkes",7,"Read Recog","BLAZE","FIRE","Study2","F",26,51,"Study","Study Phase","",1523,"",NA
"JoAsiaBurkes",7,"Read Recog","RAZOR","MUSCLE","Study2","M",20,14,"Study","Study Phase","",1613,"",NA
"JoAsiaBurkes",7,"Read Recog","DEATH","BUSINESS","Study2","U",44,48,"Study","Study Phase","",1500,"",NA
"JoAsiaBurkes",7,"Read Recog","LEAGUE","BASEBALL","Study2","F",29,22,"Study","Study Phase","",1701,"",NA
"JoAsiaBurkes",7,"Read Recog","WASP","BUG","Study2","F",34,35,"Study","Study Phase","",1623,"",NA
"JoAsiaBurkes",7,"Read Recog","HAPPY","CAR","Study2","U",37,29,"Study","Study Phase","",1479,"",NA
"JoAsiaBurkes",7,"Read Recog","ARTERY","BRONZE","Study2","U",48,47,"Study","Study Phase","",1786,"",NA
"JoAsiaBurkes",7,"Read Recog","DOCUMENT","PAPER","Study2","F",27,36,"Study","Study Phase","",1593,"",NA
"JoAsiaBurkes",7,"Read Recog","PUSH","CLUTTER","Study2","U",41,16,"Study","Study Phase","",1389,"",NA
"JoAsiaBurkes",7,"Read Recog","MIRROR","CHILDREN","Study2","U",49,26,"Study","Study Phase","",1738,"",NA
"JoAsiaBurkes",7,"Read Recog","SUMMER","SNOW","Study2","M",6,17,"Study","Study Phase","",1566,"",NA
"JoAsiaBurkes",7,"Read Recog","SICK","HIDE","Study2","U",45,32,"Study","Study Phase","",1178,"",NA
"JoAsiaBurkes",7,"Read Recog","HERD","COW","Study2","F",33,42,"Study","Study Phase","",1727,"",NA
"JoAsiaBurkes",7,"Read Recog","KING","VASE","Study2","U",36,39,"Study","Study Phase","",1593,"",NA
"JoAsiaBurkes",7,"Read Recog","BRIDGE","WATER","Study2","F",35,49,"Study","Study Phase","",1663,"",NA
"JoAsiaBurkes",7,"Read Recog","REALITY","ISLAND","Study2","M",9,33,"Study","Study Phase","",1713,"",NA
"JoAsiaBurkes",7,"Read Recog","RAKE","SEED","Study2","M",14,23,"Study","Study Phase","",1471,"",NA
"JoAsiaBurkes",7,"Read Recog","STRONG","ACCIDENT","Study2","U",39,46,"Study","Study Phase","",1541,"",NA
"JoAsiaBurkes",7,"Read Recog","CACTUS","PLANT","Study2","F",21,13,"Study","Study Phase","",1461,"",NA
"JoAsiaBurkes",7,"Read Recog","WINDOW","KNOB","Study2","M",19,41,"Study","Study Phase","",1568,"",NA
"JoAsiaBurkes",7,"Read Recog","FEUD","FIGHT","Study2","F",31,38,"Study","Study Phase","",1596,"",NA
"JoAsiaBurkes",7,"Read Recog","LEASE","TOIL","Study2","U",46,40,"Study","Study Phase","",1403,"",NA
"JoAsiaBurkes",7,"Read Recog","SCHOOL","STOP","Study2","M",7,9,"Study","Study Phase","",1386,"",NA
"JoAsiaBurkes",7,"Read Recog","INCENSE","SMELL","Study2","F",28,34,"Study","Study Phase","",1639,"",NA
"JoAsiaBurkes",7,"Read Recog","NURSE","LAWYER","Study2","M",11,8,"Study","Study Phase","",1510,"",NA
"JoAsiaBurkes",7,"Read Recog","ART","WOLF","Study2","U",38,15,"Study","Study Phase","",1329,"",NA
"JoAsiaBurkes",7,"Read Recog","VALLEY","PEAK","Study2","M",18,25,"Study","Study Phase","",1453,"",NA
"JoAsiaBurkes",7,"Read Recog","ATTIRE","CLOTHES","Study2","F",24,21,"Study","Study Phase","",1507,"",NA
"JoAsiaBurkes",7,"Read Recog","EYES","SMELL","Study2","M",10,7,"Study","Study Phase","",1369,"",NA
"JoAsiaBurkes",7,"Read Recog","CHOP","CUT","Study2","F",22,28,"Study","Study Phase","",1398,"",NA
"JoAsiaBurkes",7,"Read Recog","HEAVY","FEATHER","Study2","M",13,44,"Study","Study Phase","",1531,"",NA
"JoAsiaBurkes",7,"Read Recog","TRAP","CAVE","Study2","M",15,31,"Study","Study Phase","",1473,"",NA
"KaitlynHayes",5,"Read Recog","LION","STRIPES","Study1","M",6,30,"Study","Study Phase","",1850,"",NA
"KaitlynHayes",5,"Read Recog","TUNA","FISH","Study1","F",35,45,"Study","Study Phase","",2058,"",NA
"KaitlynHayes",5,"Read Recog","STRETCH","CLOTH","Study1","U",37,39,"Study","Study Phase","",1437,"",NA
"KaitlynHayes",5,"Read Recog","HARD","COTTON","Study1","M",20,37,"Study","Study Phase","",1438,"",NA
"KaitlynHayes",5,"Read Recog","CEILING","CARPET","Study1","M",15,47,"Study","Study Phase","",1577,"",NA
"KaitlynHayes",5,"Read Recog","CRY","BOTTLE","Study1","M",16,46,"Study","Study Phase","",1389,"",NA
"KaitlynHayes",5,"Read Recog","TREE","SYRUP","Study1","M",11,26,"Study","Study Phase","",2202,"",NA
"KaitlynHayes",5,"Read Recog","WEDDING","FINGER","Study1","M",17,38,"Study","Study Phase","",3956,"",NA
"KaitlynHayes",5,"Read Recog","ROUGH","SILK","Study1","M",10,25,"Study","Study Phase","",1212,"",NA
"KaitlynHayes",5,"Read Recog","ORCHID","FLOWER","Study1","F",34,48,"Study","Study Phase","",1105,"",NA
"KaitlynHayes",5,"Read Recog","BIRTHDAY","PIE","Study1","M",9,21,"Study","Study Phase","",1272,"",NA
"KaitlynHayes",5,"Read Recog","HORSE","WHEEL","Study1","M",14,33,"Study","Study Phase","",1700,"",NA
"KaitlynHayes",5,"Read Recog","TOOTH","HAIR","Study1","M",19,13,"Study","Study Phase","",2117,"",NA
"KaitlynHayes",5,"Read Recog","CRACKLE","ELECTION","Study1","U",39,24,"Study","Study Phase","",2053,"",NA
"KaitlynHayes",5,"Read Recog","SIGN","TICK","Study1","U",47,10,"Study","Study Phase","",1895,"",NA
"KaitlynHayes",5,"Read Recog","KEYS","ROD","Study1","U",45,35,"Study","Study Phase","",1471,"",NA
"KaitlynHayes",5,"Read Recog","WAR","QUIET","Study1","M",8,16,"Study","Study Phase","",1603,"",NA
"KaitlynHayes",5,"Read Recog","SCALP","HEAD","Study1","F",23,22,"Study","Study Phase","",1728,"",NA
"KaitlynHayes",5,"Read Recog","MULE","DONKEY","Study1","F",24,43,"Study","Study Phase","",1442,"",NA
"KaitlynHayes",5,"Read Recog","CREDIT","CARD","Study1","F",33,19,"Study","Study Phase","",1802,"",NA
"KaitlynHayes",5,"Read Recog","GIVE","STEAK","Study1","U",38,41,"Study","Study Phase","",1455,"",NA
"KaitlynHayes",5,"Read Recog","SWAN","BIRD","Study1","F",26,23,"Study","Study Phase","",1399,"",NA
"KaitlynHayes",5,"Read Recog","CIRCLE","DANCE","Study1","M",13,15,"Study","Study Phase","",1651,"",NA
"KaitlynHayes",5,"Read Recog","WORD","SENTENCE","Study1","F",27,12,"Study","Study Phase","",1580,"",NA
"KaitlynHayes",5,"Read Recog","WAGE","MONEY","Study1","F",22,28,"Study","Study Phase","",1274,"",NA
"KaitlynHayes",5,"Read Recog","NAP","SLEEP","Study1","F",29,49,"Study","Study Phase","",1146,"",NA
"KaitlynHayes",5,"Read Recog","MEAT","KEYS","Study1","U",41,50,"Study","Study Phase","",1757,"",NA
"KaitlynHayes",5,"Read Recog","MULE","DONKEY","Study1","F",30,27,"Study","Study Phase","",1356,"",NA
"KaitlynHayes",5,"Read Recog","AFFECTION","LOVE","Study1","F",31,14,"Study","Study Phase","",1187,"",NA
"KaitlynHayes",5,"Read Recog","MAZE","PHONE","Study1","U",42,31,"Study","Study Phase","",896,"",NA
"KaitlynHayes",5,"Read Recog","CAKE","HAND","Study1","U",49,34,"Study","Study Phase","",1092,"",NA
"KaitlynHayes",5,"Read Recog","SIP","DRINK","Study1","F",32,9,"Study","Study Phase","",1452,"",NA
"KaitlynHayes",5,"Read Recog","BAT","BOUNCE","Study1","M",12,36,"Study","Study Phase","",1251,"",NA
"KaitlynHayes",5,"Read Recog","TEMPERATURE","MORNING","Study1","U",48,20,"Study","Study Phase","",1491,"",NA
"KaitlynHayes",5,"Read Recog","VEHICLE","CHARM","Study1","U",40,42,"Study","Study Phase","",2906,"",NA
"KaitlynHayes",5,"Read Recog","SOON","BELT","Study1","U",46,7,"Study","Study Phase","",1829,"",NA
"KaitlynHayes",5,"Read Recog","LITTER","TRASH","Study1","F",21,11,"Study","Study Phase","",1136,"",NA
"KaitlynHayes",5,"Read Recog","HYGIENE","CLEAN","Study1","F",28,17,"Study","Study Phase","",1330,"",NA
"KaitlynHayes",5,"Read Recog","ROOT","PLANT","Study1","F",25,29,"Study","Study Phase","",1209,"",NA
"KaitlynHayes",5,"Read Recog","BEACH","BOX","Study1","M",7,40,"Study","Study Phase","",2003,"",NA
"KaitlynHayes",5,"Read Recog","MIRROR","MAROON","Study1","U",36,32,"Study","Study Phase","",1646,"",NA
"KaitlynHayes",5,"Read Recog","LISTEN","FICTION","Study1","U",44,44,"Study","Study Phase","",1657,"",NA
"KaitlynHayes",5,"Read Recog","FUZZY","BANG","Study1","U",50,51,"Study","Study Phase","",1289,"",NA
"KaitlynHayes",5,"Read Recog","DAY","DARK","Study1","M",18,8,"Study","Study Phase","",1270,"",NA
"KaitlynHayes",5,"Read Recog","SHELL","SHAKE","Study1","U",43,18,"Study","Study Phase","",2638,"",NA
"KallieSiebrasse",5,"Read Recog","LITTER","TRASH","Study1","F",21,33,"Study","Study Phase","",1013,"",NA
"KallieSiebrasse",5,"Read Recog","ROOT","PLANT","Study1","F",25,29,"Study","Study Phase","",742,"",NA
"KallieSiebrasse",5,"Read Recog","CAKE","HAND","Study1","U",49,31,"Study","Study Phase","",623,"",NA
"KallieSiebrasse",5,"Read Recog","WAGE","MONEY","Study1","F",22,8,"Study","Study Phase","",786,"",NA
"KallieSiebrasse",5,"Read Recog","SHELL","SHAKE","Study1","U",43,42,"Study","Study Phase","",788,"",NA
"KallieSiebrasse",5,"Read Recog","AFFECTION","LOVE","Study1","F",31,48,"Study","Study Phase","",1261,"",NA
"KallieSiebrasse",5,"Read Recog","WAR","QUIET","Study1","M",8,40,"Study","Study Phase","",438,"",NA
"KallieSiebrasse",5,"Read Recog","CRACKLE","ELECTION","Study1","U",39,50,"Study","Study Phase","",475,"",NA
"KallieSiebrasse",5,"Read Recog","BAT","BOUNCE","Study1","M",12,36,"Study","Study Phase","",595,"",NA
"KallieSiebrasse",5,"Read Recog","CRY","BOTTLE","Study1","M",16,13,"Study","Study Phase","",525,"",NA
"KallieSiebrasse",5,"Read Recog","CEILING","CARPET","Study1","M",15,21,"Study","Study Phase","",445,"",NA
"KallieSiebrasse",5,"Read Recog","LION","STRIPES","Study1","M",6,18,"Study","Study Phase","",742,"",NA
"KallieSiebrasse",5,"Read Recog","MULE","DONKEY","Study1","F",30,30,"Study","Study Phase","",737,"",NA
"KallieSiebrasse",5,"Read Recog","SWAN","BIRD","Study1","F",26,35,"Study","Study Phase","",378,"",NA
"KallieSiebrasse",5,"Read Recog","TEMPERATURE","MORNING","Study1","U",48,11,"Study","Study Phase","",402,"",NA
"KallieSiebrasse",5,"Read Recog","SIGN","TICK","Study1","U",47,17,"Study","Study Phase","",427,"",NA
"KallieSiebrasse",5,"Read Recog","BIRTHDAY","PIE","Study1","M",9,14,"Study","Study Phase","",445,"",NA
"KallieSiebrasse",5,"Read Recog","ROUGH","SILK","Study1","M",10,34,"Study","Study Phase","",469,"",NA
"KallieSiebrasse",5,"Read Recog","MAZE","PHONE","Study1","U",42,37,"Study","Study Phase","",545,"",NA
"KallieSiebrasse",5,"Read Recog","CIRCLE","DANCE","Study1","M",13,12,"Study","Study Phase","",869,"",NA
"KallieSiebrasse",5,"Read Recog","HARD","COTTON","Study1","M",20,25,"Study","Study Phase","",885,"",NA
"KallieSiebrasse",5,"Read Recog","FUZZY","BANG","Study1","U",50,27,"Study","Study Phase","",939,"",NA
"KallieSiebrasse",5,"Read Recog","HORSE","WHEEL","Study1","M",14,22,"Study","Study Phase","",766,"",NA
"KallieSiebrasse",5,"Read Recog","MULE","DONKEY","Study1","F",24,28,"Study","Study Phase","",783,"",NA
"KallieSiebrasse",5,"Read Recog","WORD","SENTENCE","Study1","F",27,16,"Study","Study Phase","",416,"",NA
"KallieSiebrasse",5,"Read Recog","HYGIENE","CLEAN","Study1","F",28,20,"Study","Study Phase","",468,"",NA
"KallieSiebrasse",5,"Read Recog","STRETCH","CLOTH","Study1","U",37,49,"Study","Study Phase","",732,"",NA
"KallieSiebrasse",5,"Read Recog","DAY","DARK","Study1","M",18,45,"Study","Study Phase","",827,"",NA
"KallieSiebrasse",5,"Read Recog","SIP","DRINK","Study1","F",32,32,"Study","Study Phase","",402,"",NA
"KallieSiebrasse",5,"Read Recog","SOON","BELT","Study1","U",46,15,"Study","Study Phase","",565,"",NA
"KallieSiebrasse",5,"Read Recog","VEHICLE","CHARM","Study1","U",40,47,"Study","Study Phase","",390,"",NA
"KallieSiebrasse",5,"Read Recog","GIVE","STEAK","Study1","U",38,41,"Study","Study Phase","",599,"",NA
"KallieSiebrasse",5,"Read Recog","BEACH","BOX","Study1","M",7,26,"Study","Study Phase","",521,"",NA
"KallieSiebrasse",5,"Read Recog","TOOTH","HAIR","Study1","M",19,9,"Study","Study Phase","",725,"",NA
"KallieSiebrasse",5,"Read Recog","TUNA","FISH","Study1","F",35,43,"Study","Study Phase","",423,"",NA
"KallieSiebrasse",5,"Read Recog","KEYS","ROD","Study1","U",45,51,"Study","Study Phase","",536,"",NA
"KallieSiebrasse",5,"Read Recog","CREDIT","CARD","Study1","F",33,46,"Study","Study Phase","",568,"",NA
"KallieSiebrasse",5,"Read Recog","NAP","SLEEP","Study1","F",29,10,"Study","Study Phase","",421,"",NA
"KallieSiebrasse",5,"Read Recog","MIRROR","MAROON","Study1","U",36,44,"Study","Study Phase","",459,"",NA
"KallieSiebrasse",5,"Read Recog","WEDDING","FINGER","Study1","M",17,23,"Study","Study Phase","",465,"",NA
"KallieSiebrasse",5,"Read Recog","ORCHID","FLOWER","Study1","F",34,38,"Study","Study Phase","",452,"",NA
"KallieSiebrasse",5,"Read Recog","MEAT","KEYS","Study1","U",41,39,"Study","Study Phase","",401,"",NA
"KallieSiebrasse",5,"Read Recog","TREE","SYRUP","Study1","M",11,19,"Study","Study Phase","",486,"",NA
"KallieSiebrasse",5,"Read Recog","LISTEN","FICTION","Study1","U",44,24,"Study","Study Phase","",544,"",NA
"KallieSiebrasse",5,"Read Recog","SCALP","HEAD","Study1","F",23,7,"Study","Study Phase","",590,"",NA
"KatelynLaird",5,"Read Recog","HYGIENE","CLEAN","Study1","F",28,48,"Study","Study Phase","",1701,"",NA
"KatelynLaird",5,"Read Recog","CIRCLE","DANCE","Study1","M",13,43,"Study","Study Phase","",2497,"",NA
"KatelynLaird",5,"Read Recog","WORD","SENTENCE","Study1","F",27,33,"Study","Study Phase","",1172,"",NA
"KatelynLaird",5,"Read Recog","VEHICLE","CHARM","Study1","U",40,8,"Study","Study Phase","",1845,"",NA
"KatelynLaird",5,"Read Recog","BAT","BOUNCE","Study1","M",12,7,"Study","Study Phase","",1123,"",NA
"KatelynLaird",5,"Read Recog","ORCHID","FLOWER","Study1","F",34,17,"Study","Study Phase","",1540,"",NA
"KatelynLaird",5,"Read Recog","MIRROR","MAROON","Study1","U",36,20,"Study","Study Phase","",1220,"",NA
"KatelynLaird",5,"Read Recog","FUZZY","BANG","Study1","U",50,28,"Study","Study Phase","",3553,"",NA
"KatelynLaird",5,"Read Recog","DAY","DARK","Study1","M",18,46,"Study","Study Phase","",3536,"",NA
"KatelynLaird",5,"Read Recog","LITTER","TRASH","Study1","F",21,37,"Study","Study Phase","",1833,"",NA
"KatelynLaird",5,"Read Recog","AFFECTION","LOVE","Study1","F",31,12,"Study","Study Phase","",1908,"",NA
"KatelynLaird",5,"Read Recog","NAP","SLEEP","Study1","F",29,13,"Study","Study Phase","",1298,"",NA
"KatelynLaird",5,"Read Recog","CAKE","HAND","Study1","U",49,39,"Study","Study Phase","",1227,"",NA
"KatelynLaird",5,"Read Recog","TEMPERATURE","MORNING","Study1","U",48,29,"Study","Study Phase","",3328,"",NA
"KatelynLaird",5,"Read Recog","TOOTH","HAIR","Study1","M",19,10,"Study","Study Phase","",2529,"",NA
"KatelynLaird",5,"Read Recog","CRACKLE","ELECTION","Study1","U",39,18,"Study","Study Phase","",7822,"",NA
"KatelynLaird",5,"Read Recog","WAGE","MONEY","Study1","F",22,50,"Study","Study Phase","",1029,"",NA
"KatelynLaird",5,"Read Recog","CRY","BOTTLE","Study1","M",16,15,"Study","Study Phase","",1860,"",NA
"KatelynLaird",5,"Read Recog","TREE","SYRUP","Study1","M",11,32,"Study","Study Phase","",839,"",NA
"KatelynLaird",5,"Read Recog","CEILING","CARPET","Study1","M",15,27,"Study","Study Phase","",5598,"",NA
"KatelynLaird",5,"Read Recog","HARD","COTTON","Study1","M",20,16,"Study","Study Phase","",1838,"",NA
"KatelynLaird",5,"Read Recog","WEDDING","FINGER","Study1","M",17,24,"Study","Study Phase","",3112,"",NA
"KatelynLaird",5,"Read Recog","LION","STRIPES","Study1","M",6,14,"Study","Study Phase","",1247,"",NA
"KatelynLaird",5,"Read Recog","KEYS","ROD","Study1","U",45,51,"Study","Study Phase","",1862,"",NA
"KatelynLaird",5,"Read Recog","SCALP","HEAD","Study1","F",23,49,"Study","Study Phase","",1277,"",NA
"KatelynLaird",5,"Read Recog","WAR","QUIET","Study1","M",8,31,"Study","Study Phase","",2129,"",NA
"KatelynLaird",5,"Read Recog","MULE","DONKEY","Study1","F",30,42,"Study","Study Phase","",1391,"",NA
"KatelynLaird",5,"Read Recog","LISTEN","FICTION","Study1","U",44,44,"Study","Study Phase","",2407,"",NA
"KatelynLaird",5,"Read Recog","BIRTHDAY","PIE","Study1","M",9,26,"Study","Study Phase","",1602,"",NA
"KatelynLaird",5,"Read Recog","BEACH","BOX","Study1","M",7,38,"Study","Study Phase","",3494,"",NA
"KatelynLaird",5,"Read Recog","SIGN","TICK","Study1","U",47,19,"Study","Study Phase","",4339,"",NA
"KatelynLaird",5,"Read Recog","ROOT","PLANT","Study1","F",25,35,"Study","Study Phase","",3609,"",NA
"KatelynLaird",5,"Read Recog","MULE","DONKEY","Study1","F",24,45,"Study","Study Phase","",1700,"",NA
"KatelynLaird",5,"Read Recog","CREDIT","CARD","Study1","F",33,40,"Study","Study Phase","",2129,"",NA
"KatelynLaird",5,"Read Recog","MAZE","PHONE","Study1","U",42,36,"Study","Study Phase","",3495,"",NA
"KatelynLaird",5,"Read Recog","SOON","BELT","Study1","U",46,11,"Study","Study Phase","",1101,"",NA
"KatelynLaird",5,"Read Recog","STRETCH","CLOTH","Study1","U",37,23,"Study","Study Phase","",2658,"",NA
"KatelynLaird",5,"Read Recog","HORSE","WHEEL","Study1","M",14,22,"Study","Study Phase","",981,"",NA
"KatelynLaird",5,"Read Recog","GIVE","STEAK","Study1","U",38,9,"Study","Study Phase","",1142,"",NA
"KatelynLaird",5,"Read Recog","TUNA","FISH","Study1","F",35,21,"Study","Study Phase","",1261,"",NA
"KatelynLaird",5,"Read Recog","SHELL","SHAKE","Study1","U",43,47,"Study","Study Phase","",1323,"",NA
"KatelynLaird",5,"Read Recog","MEAT","KEYS","Study1","U",41,34,"Study","Study Phase","",1508,"",NA
"KatelynLaird",5,"Read Recog","ROUGH","SILK","Study1","M",10,41,"Study","Study Phase","",1377,"",NA
"KatelynLaird",5,"Read Recog","SWAN","BIRD","Study1","F",26,25,"Study","Study Phase","",1095,"",NA
"KatelynLaird",5,"Read Recog","SIP","DRINK","Study1","F",32,30,"Study","Study Phase","",871,"",NA
"KatelynNguyen",7,"Read Recog","MIRROR","CHILDREN","Study2","U",49,48,"Study","Study Phase","",722,"",NA
"KatelynNguyen",7,"Read Recog","CHOP","CUT","Study2","F",22,18,"Study","Study Phase","",1132,"",NA
"KatelynNguyen",7,"Read Recog","CASH","LEG","Study2","U",50,41,"Study","Study Phase","",856,"",NA
"KatelynNguyen",7,"Read Recog","BLAZE","FIRE","Study2","F",26,36,"Study","Study Phase","",1130,"",NA
"KatelynNguyen",7,"Read Recog","SOAP","DRINK","Study2","M",12,22,"Study","Study Phase","",805,"",NA
"KatelynNguyen",7,"Read Recog","BOTH","OUNCE","Study2","U",47,12,"Study","Study Phase","",643,"",NA
"KatelynNguyen",7,"Read Recog","BRIDGE","WATER","Study2","F",35,19,"Study","Study Phase","",567,"",NA
"KatelynNguyen",7,"Read Recog","ATTIRE","CLOTHES","Study2","F",24,13,"Study","Study Phase","",419,"",NA
"KatelynNguyen",7,"Read Recog","INCENSE","SMELL","Study2","F",28,51,"Study","Study Phase","",674,"",NA
"KatelynNguyen",7,"Read Recog","CACTUS","PLANT","Study2","F",21,49,"Study","Study Phase","",736,"",NA
"KatelynNguyen",7,"Read Recog","LEASE","TOIL","Study2","U",46,14,"Study","Study Phase","",587,"",NA
"KatelynNguyen",7,"Read Recog","ARTERY","BRONZE","Study2","U",48,26,"Study","Study Phase","",543,"",NA
"KatelynNguyen",7,"Read Recog","OVEN","BASKET","Study2","M",16,30,"Study","Study Phase","",499,"",NA
"KatelynNguyen",7,"Read Recog","SUMMER","SNOW","Study2","M",6,7,"Study","Study Phase","",445,"",NA
"KatelynNguyen",7,"Read Recog","GRILL","THIGH","Study2","M",17,24,"Study","Study Phase","",473,"",NA
"KatelynNguyen",7,"Read Recog","DOCUMENT","PAPER","Study2","F",27,11,"Study","Study Phase","",411,"",NA
"KatelynNguyen",7,"Read Recog","DEATH","BUSINESS","Study2","U",44,32,"Study","Study Phase","",514,"",NA
"KatelynNguyen",7,"Read Recog","NURSE","LAWYER","Study2","M",11,10,"Study","Study Phase","",439,"",NA
"KatelynNguyen",7,"Read Recog","CHERRY","RED","Study2","F",25,21,"Study","Study Phase","",377,"",NA
"KatelynNguyen",7,"Read Recog","FEUD","FIGHT","Study2","F",31,25,"Study","Study Phase","",281,"",NA
"KatelynNguyen",7,"Read Recog","RAZOR","MUSCLE","Study2","M",20,9,"Study","Study Phase","",245,"",NA
"KatelynNguyen",7,"Read Recog","KING","VASE","Study2","U",36,20,"Study","Study Phase","",206,"",NA
"KatelynNguyen",7,"Read Recog","CHILL","COLD","Study2","F",32,27,"Study","Study Phase","",230,"",NA
"KatelynNguyen",7,"Read Recog","PUSH","CLUTTER","Study2","U",41,44,"Study","Study Phase","",204,"",NA
"KatelynNguyen",7,"Read Recog","HORNET","STING","Study2","F",30,37,"Study","Study Phase","",195,"",NA
"KatelynNguyen",7,"Read Recog","LEAGUE","BASEBALL","Study2","F",29,8,"Study","Study Phase","",207,"",NA
"KatelynNguyen",7,"Read Recog","ART","WOLF","Study2","U",38,35,"Study","Study Phase","",251,"",NA
"KatelynNguyen",7,"Read Recog","HAPPY","CAR","Study2","U",37,46,"Study","Study Phase","",204,"",NA
"KatelynNguyen",7,"Read Recog","VALLEY","PEAK","Study2","M",18,39,"Study","Study Phase","",209,"",NA
"KatelynNguyen",7,"Read Recog","SUGAR","RIDDLE","Study2","U",40,50,"Study","Study Phase","",204,"",NA
"KatelynNguyen",7,"Read Recog","HEAVY","FEATHER","Study2","M",13,45,"Study","Study Phase","",188,"",NA
"KatelynNguyen",7,"Read Recog","REALITY","ISLAND","Study2","M",9,47,"Study","Study Phase","",260,"",NA
"KatelynNguyen",7,"Read Recog","SCHOOL","STOP","Study2","M",7,34,"Study","Study Phase","",183,"",NA
"KatelynNguyen",7,"Read Recog","PANTS","COLLAR","Study2","M",8,40,"Study","Study Phase","",246,"",NA
"KatelynNguyen",7,"Read Recog","EYES","SMELL","Study2","M",10,43,"Study","Study Phase","",196,"",NA
"KatelynNguyen",7,"Read Recog","WINDOW","KNOB","Study2","M",19,33,"Study","Study Phase","",185,"",NA
"KatelynNguyen",7,"Read Recog","TRAP","CAVE","Study2","M",15,17,"Study","Study Phase","",172,"",NA
"KatelynNguyen",7,"Read Recog","HERD","COW","Study2","F",33,28,"Study","Study Phase","",148,"",NA
"KatelynNguyen",7,"Read Recog","DIETARY","SACK","Study2","U",42,31,"Study","Study Phase","",170,"",NA
"KatelynNguyen",7,"Read Recog","WASP","BUG","Study2","F",34,15,"Study","Study Phase","",132,"",NA
"KatelynNguyen",7,"Read Recog","RAKE","SEED","Study2","M",14,42,"Study","Study Phase","",149,"",NA
"KatelynNguyen",7,"Read Recog","CHISEL","HAMMER","Study2","F",23,16,"Study","Study Phase","",135,"",NA
"KatelynNguyen",7,"Read Recog","SICK","HIDE","Study2","U",45,38,"Study","Study Phase","",122,"",NA
"KatelynNguyen",7,"Read Recog","BENCH","HORN","Study2","U",43,23,"Study","Study Phase","",299,"",NA
"KatelynNguyen",7,"Read Recog","STRONG","ACCIDENT","Study2","U",39,29,"Study","Study Phase","",120,"",NA
"KathyDejnowski",7,"Read Recog","RAZOR","MUSCLE","Study2","M",20,51,"Study","Study Phase","",6960,"",NA
"KathyDejnowski",7,"Read Recog","CHISEL","HAMMER","Study2","F",23,22,"Study","Study Phase","",5275,"",NA
"KathyDejnowski",7,"Read Recog","CHILL","COLD","Study2","F",32,46,"Study","Study Phase","",5175,"",NA
"KathyDejnowski",7,"Read Recog","LEAGUE","BASEBALL","Study2","F",29,12,"Study","Study Phase","",8910,"",NA
"KathyDejnowski",7,"Read Recog","LEASE","TOIL","Study2","U",46,14,"Study","Study Phase","",7649,"",NA
"KathyDejnowski",7,"Read Recog","OVEN","BASKET","Study2","M",16,49,"Study","Study Phase","",13071,"",NA
"KathyDejnowski",7,"Read Recog","DEATH","BUSINESS","Study2","U",44,29,"Study","Study Phase","",5643,"",NA
"KathyDejnowski",7,"Read Recog","CASH","LEG","Study2","U",50,15,"Study","Study Phase","",8146,"",NA
"KathyDejnowski",7,"Read Recog","HEAVY","FEATHER","Study2","M",13,33,"Study","Study Phase","",6292,"",NA
"KathyDejnowski",7,"Read Recog","RAKE","SEED","Study2","M",14,30,"Study","Study Phase","",4123,"",NA
"KathyDejnowski",7,"Read Recog","EYES","SMELL","Study2","M",10,43,"Study","Study Phase","",5525,"",NA
"KathyDejnowski",7,"Read Recog","STRONG","ACCIDENT","Study2","U",39,23,"Study","Study Phase","",8017,"",NA
"KathyDejnowski",7,"Read Recog","CHOP","CUT","Study2","F",22,39,"Study","Study Phase","",6675,"",NA
"KathyDejnowski",7,"Read Recog","BOTH","OUNCE","Study2","U",47,38,"Study","Study Phase","",6494,"",NA
"KathyDejnowski",7,"Read Recog","REALITY","ISLAND","Study2","M",9,50,"Study","Study Phase","",9143,"",NA
"KathyDejnowski",7,"Read Recog","PUSH","CLUTTER","Study2","U",41,41,"Study","Study Phase","",6249,"",NA
"KathyDejnowski",7,"Read Recog","GRILL","THIGH","Study2","M",17,17,"Study","Study Phase","",6623,"",NA
"KathyDejnowski",7,"Read Recog","ART","WOLF","Study2","U",38,13,"Study","Study Phase","",6354,"",NA
"KathyDejnowski",7,"Read Recog","CHERRY","RED","Study2","F",25,47,"Study","Study Phase","",5500,"",NA
"KathyDejnowski",7,"Read Recog","PANTS","COLLAR","Study2","M",8,18,"Study","Study Phase","",7633,"",NA
"KathyDejnowski",7,"Read Recog","BLAZE","FIRE","Study2","F",26,16,"Study","Study Phase","",9686,"",NA
"KathyDejnowski",7,"Read Recog","MIRROR","CHILDREN","Study2","U",49,25,"Study","Study Phase","",6778,"",NA
"KathyDejnowski",7,"Read Recog","TRAP","CAVE","Study2","M",15,48,"Study","Study Phase","",7200,"",NA
"KathyDejnowski",7,"Read Recog","BRIDGE","WATER","Study2","F",35,37,"Study","Study Phase","",6715,"",NA
"KathyDejnowski",7,"Read Recog","WASP","BUG","Study2","F",34,10,"Study","Study Phase","",6737,"",NA
"KathyDejnowski",7,"Read Recog","HAPPY","CAR","Study2","U",37,31,"Study","Study Phase","",5378,"",NA
"KathyDejnowski",7,"Read Recog","ARTERY","BRONZE","Study2","U",48,8,"Study","Study Phase","",8767,"",NA
"KathyDejnowski",7,"Read Recog","WINDOW","KNOB","Study2","M",19,35,"Study","Study Phase","",9888,"",NA
"KathyDejnowski",7,"Read Recog","DIETARY","SACK","Study2","U",42,32,"Study","Study Phase","",11078,"",NA
"KathyDejnowski",7,"Read Recog","HORNET","STING","Study2","F",30,7,"Study","Study Phase","",6194,"",NA
"KathyDejnowski",7,"Read Recog","KING","VASE","Study2","U",36,27,"Study","Study Phase","",7617,"",NA
"KathyDejnowski",7,"Read Recog","SICK","HIDE","Study2","U",45,11,"Study","Study Phase","",9373,"",NA
"KathyDejnowski",7,"Read Recog","INCENSE","SMELL","Study2","F",28,9,"Study","Study Phase","",8881,"",NA
"KathyDejnowski",7,"Read Recog","FEUD","FIGHT","Study2","F",31,40,"Study","Study Phase","",7979,"",NA
"KathyDejnowski",7,"Read Recog","DOCUMENT","PAPER","Study2","F",27,20,"Study","Study Phase","",22422,"",NA
"KathyDejnowski",7,"Read Recog","HERD","COW","Study2","F",33,36,"Study","Study Phase","",25334,"",NA
"KathyDejnowski",7,"Read Recog","SCHOOL","STOP","Study2","M",7,44,"Study","Study Phase","",7949,"",NA
"KathyDejnowski",7,"Read Recog","SUGAR","RIDDLE","Study2","U",40,21,"Study","Study Phase","",13322,"",NA
"KathyDejnowski",7,"Read Recog","CACTUS","PLANT","Study2","F",21,45,"Study","Study Phase","",5286,"",NA
"KathyDejnowski",7,"Read Recog","SUMMER","SNOW","Study2","M",6,26,"Study","Study Phase","",7618,"",NA
"KathyDejnowski",7,"Read Recog","BENCH","HORN","Study2","U",43,42,"Study","Study Phase","",8307,"",NA
"KathyDejnowski",7,"Read Recog","SOAP","DRINK","Study2","M",12,19,"Study","Study Phase","",11121,"",NA
"KathyDejnowski",7,"Read Recog","ATTIRE","CLOTHES","Study2","F",24,24,"Study","Study Phase","",6780,"",NA
"KathyDejnowski",7,"Read Recog","NURSE","LAWYER","Study2","M",11,28,"Study","Study Phase","",8933,"",NA
"KathyDejnowski",7,"Read Recog","VALLEY","PEAK","Study2","M",18,34,"Study","Study Phase","",9958,"",NA
"KaylaGilliam",7,"Read Recog","SUGAR","RIDDLE","Study2","U",40,9,"Study","Study Phase","",6033,"",NA
"KaylaGilliam",7,"Read Recog","CHOP","CUT","Study2","F",22,22,"Study","Study Phase","",8485,"",NA
"KaylaGilliam",7,"Read Recog","DIETARY","SACK","Study2","U",42,45,"Study","Study Phase","",7839,"",NA
"KaylaGilliam",7,"Read Recog","WASP","BUG","Study2","F",34,31,"Study","Study Phase","",5195,"",NA
"KaylaGilliam",7,"Read Recog","EYES","SMELL","Study2","M",10,39,"Study","Study Phase","",4140,"",NA
"KaylaGilliam",7,"Read Recog","SOAP","DRINK","Study2","M",12,28,"Study","Study Phase","",4394,"",NA
"KaylaGilliam",7,"Read Recog","BOTH","OUNCE","Study2","U",47,34,"Study","Study Phase","",4359,"",NA
"KaylaGilliam",7,"Read Recog","LEASE","TOIL","Study2","U",46,33,"Study","Study Phase","",4141,"",NA
"KaylaGilliam",7,"Read Recog","BLAZE","FIRE","Study2","F",26,42,"Study","Study Phase","",4838,"",NA
"KaylaGilliam",7,"Read Recog","HAPPY","CAR","Study2","U",37,11,"Study","Study Phase","",4523,"",NA
"KaylaGilliam",7,"Read Recog","GRILL","THIGH","Study2","M",17,35,"Study","Study Phase","",6101,"",NA
"KaylaGilliam",7,"Read Recog","REALITY","ISLAND","Study2","M",9,44,"Study","Study Phase","",5594,"",NA
"KaylaGilliam",7,"Read Recog","OVEN","BASKET","Study2","M",16,21,"Study","Study Phase","",5475,"",NA
"KaylaGilliam",7,"Read Recog","CHERRY","RED","Study2","F",25,7,"Study","Study Phase","",4555,"",NA
"KaylaGilliam",7,"Read Recog","PUSH","CLUTTER","Study2","U",41,8,"Study","Study Phase","",5360,"",NA
"KaylaGilliam",7,"Read Recog","CHISEL","HAMMER","Study2","F",23,13,"Study","Study Phase","",7685,"",NA
"KaylaGilliam",7,"Read Recog","LEAGUE","BASEBALL","Study2","F",29,14,"Study","Study Phase","",507,"",NA
"KaylaGilliam",7,"Read Recog","WINDOW","KNOB","Study2","M",19,29,"Study","Study Phase","",1027,"",NA
"KaylaGilliam",7,"Read Recog","TRAP","CAVE","Study2","M",15,25,"Study","Study Phase","",1090,"",NA
"KaylaGilliam",7,"Read Recog","HERD","COW","Study2","F",33,12,"Study","Study Phase","",1011,"",NA
"KaylaGilliam",7,"Read Recog","RAZOR","MUSCLE","Study2","M",20,15,"Study","Study Phase","",920,"",NA
"KaylaGilliam",7,"Read Recog","ARTERY","BRONZE","Study2","U",48,23,"Study","Study Phase","",790,"",NA
"KaylaGilliam",7,"Read Recog","ATTIRE","CLOTHES","Study2","F",24,26,"Study","Study Phase","",612,"",NA
"KaylaGilliam",7,"Read Recog","HORNET","STING","Study2","F",30,30,"Study","Study Phase","",413,"",NA
"KaylaGilliam",7,"Read Recog","BRIDGE","WATER","Study2","F",35,37,"Study","Study Phase","",539,"",NA
"KaylaGilliam",7,"Read Recog","ART","WOLF","Study2","U",38,20,"Study","Study Phase","",457,"",NA
"KaylaGilliam",7,"Read Recog","STRONG","ACCIDENT","Study2","U",39,17,"Study","Study Phase","",460,"",NA
"KaylaGilliam",7,"Read Recog","SUMMER","SNOW","Study2","M",6,43,"Study","Study Phase","",292,"",NA
"KaylaGilliam",7,"Read Recog","PANTS","COLLAR","Study2","M",8,46,"Study","Study Phase","",517,"",NA
"KaylaGilliam",7,"Read Recog","SCHOOL","STOP","Study2","M",7,49,"Study","Study Phase","",399,"",NA
"KaylaGilliam",7,"Read Recog","KING","VASE","Study2","U",36,47,"Study","Study Phase","",446,"",NA
"KaylaGilliam",7,"Read Recog","MIRROR","CHILDREN","Study2","U",49,16,"Study","Study Phase","",466,"",NA
"KaylaGilliam",7,"Read Recog","HEAVY","FEATHER","Study2","M",13,27,"Study","Study Phase","",1650,"",NA
"KaylaGilliam",7,"Read Recog","CACTUS","PLANT","Study2","F",21,51,"Study","Study Phase","",600,"",NA
"KaylaGilliam",7,"Read Recog","CHILL","COLD","Study2","F",32,24,"Study","Study Phase","",558,"",NA
"KaylaGilliam",7,"Read Recog","VALLEY","PEAK","Study2","M",18,32,"Study","Study Phase","",391,"",NA
"KaylaGilliam",7,"Read Recog","RAKE","SEED","Study2","M",14,19,"Study","Study Phase","",383,"",NA
"KaylaGilliam",7,"Read Recog","SICK","HIDE","Study2","U",45,48,"Study","Study Phase","",408,"",NA
"KaylaGilliam",7,"Read Recog","DOCUMENT","PAPER","Study2","F",27,41,"Study","Study Phase","",445,"",NA
"KaylaGilliam",7,"Read Recog","INCENSE","SMELL","Study2","F",28,38,"Study","Study Phase","",429,"",NA
"KaylaGilliam",7,"Read Recog","FEUD","FIGHT","Study2","F",31,50,"Study","Study Phase","",455,"",NA
"KaylaGilliam",7,"Read Recog","NURSE","LAWYER","Study2","M",11,36,"Study","Study Phase","",384,"",NA
"KaylaGilliam",7,"Read Recog","CASH","LEG","Study2","U",50,40,"Study","Study Phase","",306,"",NA
"KaylaGilliam",7,"Read Recog","BENCH","HORN","Study2","U",43,10,"Study","Study Phase","",322,"",NA
"KaylaGilliam",7,"Read Recog","DEATH","BUSINESS","Study2","U",44,18,"Study","Study Phase","",342,"",NA
"KimberleePoiroux",5,"Read Recog","BEACH","BOX","Study1","M",7,17,"Study","Study Phase","",2236,"",NA
"KimberleePoiroux",5,"Read Recog","CRY","BOTTLE","Study1","M",16,39,"Study","Study Phase","",2368,"",NA
"KimberleePoiroux",5,"Read Recog","FUZZY","BANG","Study1","U",50,9,"Study","Study Phase","",5002,"",NA
"KimberleePoiroux",5,"Read Recog","TUNA","FISH","Study1","F",35,45,"Study","Study Phase","",1809,"",NA
"KimberleePoiroux",5,"Read Recog","HARD","COTTON","Study1","M",20,26,"Study","Study Phase","",1157,"",NA
"KimberleePoiroux",5,"Read Recog","LITTER","TRASH","Study1","F",21,28,"Study","Study Phase","",1553,"",NA
"KimberleePoiroux",5,"Read Recog","WAGE","MONEY","Study1","F",22,44,"Study","Study Phase","",1457,"",NA
"KimberleePoiroux",5,"Read Recog","MIRROR","MAROON","Study1","U",36,21,"Study","Study Phase","",1387,"",NA
"KimberleePoiroux",5,"Read Recog","MAZE","PHONE","Study1","U",42,19,"Study","Study Phase","",1003,"",NA
"KimberleePoiroux",5,"Read Recog","BIRTHDAY","PIE","Study1","M",9,40,"Study","Study Phase","",1541,"",NA
"KimberleePoiroux",5,"Read Recog","TEMPERATURE","MORNING","Study1","U",48,46,"Study","Study Phase","",1801,"",NA
"KimberleePoiroux",5,"Read Recog","TOOTH","HAIR","Study1","M",19,35,"Study","Study Phase","",1693,"",NA
"KimberleePoiroux",5,"Read Recog","MULE","DONKEY","Study1","F",24,30,"Study","Study Phase","",1655,"",NA
"KimberleePoiroux",5,"Read Recog","WORD","SENTENCE","Study1","F",27,34,"Study","Study Phase","",4588,"",NA
"KimberleePoiroux",5,"Read Recog","WAR","QUIET","Study1","M",8,11,"Study","Study Phase","",1773,"",NA
"KimberleePoiroux",5,"Read Recog","LISTEN","FICTION","Study1","U",44,8,"Study","Study Phase","",1552,"",NA
"KimberleePoiroux",5,"Read Recog","HYGIENE","CLEAN","Study1","F",28,15,"Study","Study Phase","",1579,"",NA
"KimberleePoiroux",5,"Read Recog","MEAT","KEYS","Study1","U",41,7,"Study","Study Phase","",4505,"",NA
"KimberleePoiroux",5,"Read Recog","GIVE","STEAK","Study1","U",38,41,"Study","Study Phase","",2121,"",NA
"KimberleePoiroux",5,"Read Recog","ROUGH","SILK","Study1","M",10,10,"Study","Study Phase","",1545,"",NA
"KimberleePoiroux",5,"Read Recog","AFFECTION","LOVE","Study1","F",31,37,"Study","Study Phase","",1569,"",NA
"KimberleePoiroux",5,"Read Recog","CIRCLE","DANCE","Study1","M",13,42,"Study","Study Phase","",4732,"",NA
"KimberleePoiroux",5,"Read Recog","NAP","SLEEP","Study1","F",29,50,"Study","Study Phase","",1473,"",NA
"KimberleePoiroux",5,"Read Recog","WEDDING","FINGER","Study1","M",17,29,"Study","Study Phase","",1630,"",NA
"KimberleePoiroux",5,"Read Recog","SOON","BELT","Study1","U",46,43,"Study","Study Phase","",1669,"",NA
"KimberleePoiroux",5,"Read Recog","BAT","BOUNCE","Study1","M",12,31,"Study","Study Phase","",1842,"",NA
"KimberleePoiroux",5,"Read Recog","SCALP","HEAD","Study1","F",23,16,"Study","Study Phase","",3869,"",NA
"KimberleePoiroux",5,"Read Recog","SIP","DRINK","Study1","F",32,47,"Study","Study Phase","",1636,"",NA
"KimberleePoiroux",5,"Read Recog","CAKE","HAND","Study1","U",49,24,"Study","Study Phase","",1429,"",NA
"KimberleePoiroux",5,"Read Recog","TREE","SYRUP","Study1","M",11,14,"Study","Study Phase","",1592,"",NA
"KimberleePoiroux",5,"Read Recog","VEHICLE","CHARM","Study1","U",40,48,"Study","Study Phase","",1456,"",NA
"KimberleePoiroux",5,"Read Recog","SHELL","SHAKE","Study1","U",43,18,"Study","Study Phase","",4206,"",NA
"KimberleePoiroux",5,"Read Recog","STRETCH","CLOTH","Study1","U",37,36,"Study","Study Phase","",2124,"",NA
"KimberleePoiroux",5,"Read Recog","ROOT","PLANT","Study1","F",25,23,"Study","Study Phase","",1338,"",NA
"KimberleePoiroux",5,"Read Recog","CREDIT","CARD","Study1","F",33,49,"Study","Study Phase","",1489,"",NA
