Username,ID,ExperimentName,Session,Trial,Date,TimeDif,"Condition Number","Stimuli File","Order File","Condition Description","Condition Notes",Stimuli*Cue,Stimuli*Answer,Stimuli*Shuffle,"Stimuli*Stimuli Notes",Stimuli*Value,Procedure*Item,"Procedure*Trial Type","Procedure*Max Time","Procedure*Min Time",Procedure*Text,"Procedure*Procedure Notes",Procedure*Shuffle,Response*RT,Response*Response,Response*Accuracy,Response*RTfirst,Response*RTlast,Response*strictAcc,Response*lenientAcc,Response*focus,Response*JOL,Response*Focus
MariaSmith,4tlyr1pu2v,"Mediated JOLs",1,1,2023-03-10T23:46:35+00:00,6.2956569194794,4,versionB_stim.csv,JOLVersion_Recall.csv,"JOL Recall",JOL2,,,,,,0,Instruct,-,5,"In this section, you will be presented with a series of word pairs. Please study each word pair! Your memory will be tested!",Initial_Instruct,Instruct1,6170,,,-1,-1,,,,,1
MariaSmith,4tlyr1pu2v,"Mediated JOLs",1,2,2023-03-10T23:46:52+00:00,16.196922063828,4,versionB_stim.csv,JOLVersion_Recall.csv,"JOL Recall",JOL2,,,,,,0,Instruct,-,10,"As you study, you will be asked to rate your ability to remember the second item in the pair if you were only shown the first at test. You will make these ratings using a 0 to 100 Scale.",,Instruct13,16068,,,-1,-1,,,,,1
MariaSmith,4tlyr1pu2v,"Mediated JOLs",1,3,2023-03-10T23:47:04+00:00,12.771735906601,4,versionB_stim.csv,JOLVersion_Recall.csv,"JOL Recall",JOL2,,,,,,0,Instruct,-,10,"For example, if you are given the pair CAT - DOG, a rating of 0 indicates that you would not remember DOG at test, while a rating of 100 indicates full certainty that you would remember the word DOG at test.",,Instruct14,12618,,,-1,-1,,,,,1
MariaSmith,4tlyr1pu2v,"Mediated JOLs",1,4,2023-03-10T23:47:42+00:00,38.013893127441,4,versionB_stim.csv,JOLVersion_Recall.csv,"JOL Recall",JOL2,,,,,,0,Instruct,-,10,"When making your ratings, it is criticial that you use the full range of the scale. You will be disqualified for only giving ratings of 0 or 100! After making your rating, press Enter to advance to the next pair.",,Instruct15,37861,,,-1,-1,,,,,1
MariaSmith,4tlyr1pu2v,"Mediated JOLs",1,5,2023-03-10T23:48:22+00:00,39.15046787262,4,versionB_stim.csv,JOLVersion_Recall.csv,"JOL Recall",JOL2,,,,,,0,Instruct,User,-,"You will now begin the study. Press Enter when you are ready to begin.",,Instruct16,39013,,,-1,-1,,,,,1
MariaSmith,4tlyr1pu2v,"Mediated JOLs",1,6,2023-03-10T23:48:26+00:00,4.5515050888062,4,versionB_stim.csv,JOLVersion_Recall.csv,"JOL Recall",JOL2,OCTOBER,SPOOKY,BUFFER3,Buffer,5,6,JOL,User,-,"How likely are you to correctly recall the second item in the pair?|Type your response on a scale from 0-100 and then press Enter.",Study/JOL,BUFFER,4425,,,2847,3079,,,,90,1
MariaSmith,4tlyr1pu2v,"Mediated JOLs",1,7,2023-03-10T23:48:34+00:00,8.0737299919128,4,versionB_stim.csv,JOLVersion_Recall.csv,"JOL Recall",JOL2,MONTH,YEAR,BUFFER3,Buffer,2,3,JOL,User,-,"How likely are you to correctly recall the second item in the pair?|Type your response on a scale from 0-100 and then press Enter.",Study/JOL,BUFFER,7954,,,2153,6948,,,,80,1
MariaSmith,4tlyr1pu2v,"Mediated JOLs",1,8,2023-03-10T23:48:38+00:00,3.3768579959869,4,versionB_stim.csv,JOLVersion_Recall.csv,"JOL Recall",JOL2,SPRING,MARCH,BUFFER3,Buffer,4,4,JOL,User,-,"How likely are you to correctly recall the second item in the pair?|Type your response on a scale from 0-100 and then press Enter.",Study/JOL,BUFFER,3257,,,2108,2379,,,,80,1
MariaSmith,4tlyr1pu2v,"Mediated JOLs",1,9,2023-03-10T23:48:42+00:00,4.7137160301208,4,versionB_stim.csv,JOLVersion_Recall.csv,"JOL Recall",JOL2,DAYS,WEAKS,BUFFER3,Buffer,1,2,JOL,User,-,"How likely are you to correctly recall the second item in the pair?|Type your response on a scale from 0-100 and then press Enter.",Study/JOL,BUFFER,4595,,,2788,3569,,,,95,1
MariaSmith,4tlyr1pu2v,"Mediated JOLs",1,10,2023-03-10T23:48:46+00:00,3.910493850708,4,versionB_stim.csv,JOLVersion_Recall.csv,"JOL Recall",JOL2,TOOL,SHED,BUFFER3,Buffer,3,5,JOL,User,-,"How likely are you to correctly recall the second item in the pair?|Type your response on a scale from 0-100 and then press Enter.",Study/JOL,BUFFER,3790,,,2412,2837,,,,70,1
MariaSmith,4tlyr1pu2v,"Mediated JOLs",1,11,2023-03-10T23:48:50+00:00,3.3058211803436,4,versionB_stim.csv,JOLVersion_Recall.csv,"JOL Recall",JOL2,DOCUMENT,PAPER,Study2,F,27,37,JOL,User,-,"How likely are you to correctly recall the second item in the pair?|Type your response on a scale from 0-100 and then press Enter.",Study/JOL,"Study Phase",3185,,,1894,2356,,,,70,1
MariaSmith,4tlyr1pu2v,"Mediated JOLs",1,12,2023-03-10T23:48:54+00:00,4.8870329856873,4,versionB_stim.csv,JOLVersion_Recall.csv,"JOL Recall",JOL2,WASP,BUG,Study2,F,34,16,JOL,User,-,"How likely are you to correctly recall the second item in the pair?|Type your response on a scale from 0-100 and then press Enter.",Study/JOL,"Study Phase",4765,,,3514,3806,,,,80,1
MariaSmith,4tlyr1pu2v,"Mediated JOLs",1,13,2023-03-10T23:48:58+00:00,3.7884318828583,4,versionB_stim.csv,JOLVersion_Recall.csv,"JOL Recall",JOL2,CHERRY,RED,Study2,F,25,45,JOL,User,-,"How likely are you to correctly recall the second item in the pair?|Type your response on a scale from 0-100 and then press Enter.",Study/JOL,"Study Phase",3673,,,1857,2644,,,,100,1
MariaSmith,4tlyr1pu2v,"Mediated JOLs",1,14,2023-03-10T23:49:03+00:00,4.9915781021118,4,versionB_stim.csv,JOLVersion_Recall.csv,"JOL Recall",JOL2,SOAP,DRINK,Study2,M,12,41,JOL,User,-,"How likely are you to correctly recall the second item in the pair?|Type your response on a scale from 0-100 and then press Enter.",Study/JOL,"Study Phase",4747,,,3342,3837,,,,50,1
MariaSmith,4tlyr1pu2v,"Mediated JOLs",1,15,2023-03-10T23:49:08+00:00,4.4537029266357,4,versionB_stim.csv,JOLVersion_Recall.csv,"JOL Recall",JOL2,SCHOOL,STOP,Study2,M,7,10,JOL,User,-,"How likely are you to correctly recall the second item in the pair?|Type your response on a scale from 0-100 and then press Enter.",Study/JOL,"Study Phase",4196,,,2217,2707,,,,50,1
MariaSmith,4tlyr1pu2v,"Mediated JOLs",1,16,2023-03-10T23:49:12+00:00,3.8850989341736,4,versionB_stim.csv,JOLVersion_Recall.csv,"JOL Recall",JOL2,REALITY,ISLAND,Study2,M,9,25,JOL,User,-,"How likely are you to correctly recall the second item in the pair?|Type your response on a scale from 0-100 and then press Enter.",Study/JOL,"Study Phase",3742,,,2188,2723,,,,50,1
MariaSmith,4tlyr1pu2v,"Mediated JOLs",1,17,2023-03-10T23:49:17+00:00,5.0207850933075,4,versionB_stim.csv,JOLVersion_Recall.csv,"JOL Recall",JOL2,VALLEY,PEAK,Study2,M,18,42,JOL,User,-,"How likely are you to correctly recall the second item in the pair?|Type your response on a scale from 0-100 and then press Enter.",Study/JOL,"Study Phase",4883,,,2702,3902,,,,60,1
MariaSmith,4tlyr1pu2v,"Mediated JOLs",1,18,2023-03-10T23:49:20+00:00,3.4028580188751,4,versionB_stim.csv,JOLVersion_Recall.csv,"JOL Recall",JOL2,HERD,COW,Study2,F,33,24,JOL,User,-,"How likely are you to correctly recall the second item in the pair?|Type your response on a scale from 0-100 and then press Enter.",Study/JOL,"Study Phase",3286,,,1922,2219,,,,70,1
MariaSmith,4tlyr1pu2v,"Mediated JOLs",1,19,2023-03-10T23:49:25+00:00,4.5683989524841,4,versionB_stim.csv,JOLVersion_Recall.csv,"JOL Recall",JOL2,ATTIRE,CLOTHES,Study2,F,24,44,JOL,User,-,"How likely are you to correctly recall the second item in the pair?|Type your response on a scale from 0-100 and then press Enter.",Study/JOL,"Study Phase",4448,,,3333,3621,,,,80,1
MariaSmith,4tlyr1pu2v,"Mediated JOLs",1,20,2023-03-10T23:49:29+00:00,4.3491020202637,4,versionB_stim.csv,JOLVersion_Recall.csv,"JOL Recall",JOL2,CASH,LEG,Study2,U,50,23,JOL,User,-,"How likely are you to correctly recall the second item in the pair?|Type your response on a scale from 0-100 and then press Enter.",Study/JOL,"Study Phase",4224,,,2809,3329,,,,50,1
MariaSmith,4tlyr1pu2v,"Mediated JOLs",1,21,2023-03-10T23:49:32+00:00,3.1943368911743,4,versionB_stim.csv,JOLVersion_Recall.csv,"JOL Recall",JOL2,CHOP,CUT,Study2,F,22,14,JOL,User,-,"How likely are you to correctly recall the second item in the pair?|Type your response on a scale from 0-100 and then press Enter.",Study/JOL,"Study Phase",3078,,,1856,2127,,,,80,1
MariaSmith,4tlyr1pu2v,"Mediated JOLs",1,22,2023-03-10T23:49:37+00:00,4.6702220439911,4,versionB_stim.csv,JOLVersion_Recall.csv,"JOL Recall",JOL2,RAZOR,MUSCLE,Study2,M,20,17,JOL,User,-,"How likely are you to correctly recall the second item in the pair?|Type your response on a scale from 0-100 and then press Enter.",Study/JOL,"Study Phase",4548,,,3057,3532,,,,50,1
MariaSmith,4tlyr1pu2v,"Mediated JOLs",1,23,2023-03-10T23:49:42+00:00,5.0094599723816,4,versionB_stim.csv,JOLVersion_Recall.csv,"JOL Recall",JOL2,EYES,SMELL,Study2,M,10,40,JOL,User,-,"How likely are you to correctly recall the second item in the pair?|Type your response on a scale from 0-100 and then press Enter.",Study/JOL,"Study Phase",4890,,,3246,3779,,,,50,1
MariaSmith,4tlyr1pu2v,"Mediated JOLs",1,24,2023-03-10T23:49:47+00:00,5.0891001224518,4,versionB_stim.csv,JOLVersion_Recall.csv,"JOL Recall",JOL2,OVEN,BASKET,Study2,M,16,31,JOL,User,-,"How likely are you to correctly recall the second item in the pair?|Type your response on a scale from 0-100 and then press Enter.",Study/JOL,"Study Phase",4960,,,1691,3881,,,,40,1
MariaSmith,4tlyr1pu2v,"Mediated JOLs",1,25,2023-03-10T23:49:51+00:00,3.9910678863525,4,versionB_stim.csv,JOLVersion_Recall.csv,"JOL Recall",JOL2,NURSE,LAWYER,Study2,M,11,15,JOL,User,-,"How likely are you to correctly recall the second item in the pair?|Type your response on a scale from 0-100 and then press Enter.",Study/JOL,"Study Phase",3860,,,2287,2804,,,,40,1
MariaSmith,4tlyr1pu2v,"Mediated JOLs",1,26,2023-03-10T23:50:05+00:00,14.410000085831,4,versionB_stim.csv,JOLVersion_Recall.csv,"JOL Recall",JOL2,SUGAR,RIDDLE,Study2,U,40,51,JOL,User,-,"How likely are you to correctly recall the second item in the pair?|Type your response on a scale from 0-100 and then press Enter.",Study/JOL,"Study Phase",14278,,,12736,13319,,,,40,1
MariaSmith,4tlyr1pu2v,"Mediated JOLs",1,27,2023-03-10T23:50:12+00:00,6.400139093399,4,versionB_stim.csv,JOLVersion_Recall.csv,"JOL Recall",JOL2,CHILL,COLD,Study2,F,32,11,JOL,User,-,"How likely are you to correctly recall the second item in the pair?|Type your response on a scale from 0-100 and then press Enter.",Study/JOL,"Study Phase",6194,,,1795,5288,,,,60,1
MariaSmith,4tlyr1pu2v,"Mediated JOLs",1,28,2023-03-10T23:50:16+00:00,4.4541659355164,4,versionB_stim.csv,JOLVersion_Recall.csv,"JOL Recall",JOL2,HEAVY,FEATHER,Study2,M,13,30,JOL,User,-,"How likely are you to correctly recall the second item in the pair?|Type your response on a scale from 0-100 and then press Enter.",Study/JOL,"Study Phase",4326,,,2878,3381,,,,50,1
MariaSmith,4tlyr1pu2v,"Mediated JOLs",1,29,2023-03-10T23:50:28+00:00,11.740478038788,4,versionB_stim.csv,JOLVersion_Recall.csv,"JOL Recall",JOL2,TRAP,CAVE,Study2,M,15,43,JOL,User,-,"How likely are you to correctly recall the second item in the pair?|Type your response on a scale from 0-100 and then press Enter.",Study/JOL,"Study Phase",11608,,,9849,10329,,,,40,1
MariaSmith,4tlyr1pu2v,"Mediated JOLs",1,30,2023-03-10T23:50:45+00:00,16.849808931351,4,versionB_stim.csv,JOLVersion_Recall.csv,"JOL Recall",JOL2,PUSH,CLUTTER,Study2,U,41,12,JOL,User,-,"How likely are you to correctly recall the second item in the pair?|Type your response on a scale from 0-100 and then press Enter.",Study/JOL,"Study Phase",16717,,,11647,12225,,,,40,1
MariaSmith,4tlyr1pu2v,"Mediated JOLs",1,31,2023-03-10T23:50:50+00:00,4.8484148979187,4,versionB_stim.csv,JOLVersion_Recall.csv,"JOL Recall",JOL2,STRONG,ACCIDENT,Study2,U,39,33,JOL,User,-,"How likely are you to correctly recall the second item in the pair?|Type your response on a scale from 0-100 and then press Enter.",Study/JOL,"Study Phase",4716,,,3127,3718,,,,40,1
MariaSmith,4tlyr1pu2v,"Mediated JOLs",1,32,2023-03-10T23:50:53+00:00,3.2396581172943,4,versionB_stim.csv,JOLVersion_Recall.csv,"JOL Recall",JOL2,GRILL,THIGH,Study2,M,17,34,JOL,User,-,"How likely are you to correctly recall the second item in the pair?|Type your response on a scale from 0-100 and then press Enter.",Study/JOL,"Study Phase",3117,,,1679,2202,,,,40,1
MariaSmith,4tlyr1pu2v,"Mediated JOLs",1,33,2023-03-10T23:51:01+00:00,8.25204205513,4,versionB_stim.csv,JOLVersion_Recall.csv,"JOL Recall",JOL2,WINDOW,KNOB,Study2,M,19,46,JOL,User,-,"How likely are you to correctly recall the second item in the pair?|Type your response on a scale from 0-100 and then press Enter.",Study/JOL,"Study Phase",8130,,,6342,6866,,,,30,1
MariaSmith,4tlyr1pu2v,"Mediated JOLs",1,34,2023-03-10T23:51:06+00:00,5.1419818401337,4,versionB_stim.csv,JOLVersion_Recall.csv,"JOL Recall",JOL2,CHISEL,HAMMER,Study2,F,23,36,JOL,User,-,"How likely are you to correctly recall the second item in the pair?|Type your response on a scale from 0-100 and then press Enter.",Study/JOL,"Study Phase",5020,,,3083,3659,,,,40,1
MariaSmith,4tlyr1pu2v,"Mediated JOLs",1,35,2023-03-10T23:51:11+00:00,4.6886711120605,4,versionB_stim.csv,JOLVersion_Recall.csv,"JOL Recall",JOL2,BENCH,HORN,Study2,U,43,47,JOL,User,-,"How likely are you to correctly recall the second item in the pair?|Type your response on a scale from 0-100 and then press Enter.",Study/JOL,"Study Phase",4570,,,2607,3708,,,,30,1
MariaSmith,4tlyr1pu2v,"Mediated JOLs",1,36,2023-03-10T23:51:14+00:00,2.8454740047455,4,versionB_stim.csv,JOLVersion_Recall.csv,"JOL Recall",JOL2,ART,WOLF,Study2,U,38,32,JOL,User,-,"How likely are you to correctly recall the second item in the pair?|Type your response on a scale from 0-100 and then press Enter.",Study/JOL,"Study Phase",2725,,,1322,1852,,,,30,1
MariaSmith,4tlyr1pu2v,"Mediated JOLs",1,37,2023-03-10T23:51:17+00:00,3.6637439727783,4,versionB_stim.csv,JOLVersion_Recall.csv,"JOL Recall",JOL2,INCENSE,SMELL,Study2,F,28,7,JOL,User,-,"How likely are you to correctly recall the second item in the pair?|Type your response on a scale from 0-100 and then press Enter.",Study/JOL,"Study Phase",3543,,,1838,2484,,,,20,1
MariaSmith,4tlyr1pu2v,"Mediated JOLs",1,38,2023-03-10T23:51:23+00:00,5.2865610122681,4,versionB_stim.csv,JOLVersion_Recall.csv,"JOL Recall",JOL2,PANTS,COLLAR,Study2,M,8,19,JOL,User,-,"How likely are you to correctly recall the second item in the pair?|Type your response on a scale from 0-100 and then press Enter.",Study/JOL,"Study Phase",5168,,,3471,4334,,,,20,1
MariaSmith,4tlyr1pu2v,"Mediated JOLs",1,39,2023-03-10T23:51:27+00:00,4.6161239147186,4,versionB_stim.csv,JOLVersion_Recall.csv,"JOL Recall",JOL2,ARTERY,BRONZE,Study2,U,48,48,JOL,User,-,"How likely are you to correctly recall the second item in the pair?|Type your response on a scale from 0-100 and then press Enter.",Study/JOL,"Study Phase",4497,,,3557,3557,,,,0,1
MariaSmith,4tlyr1pu2v,"Mediated JOLs",1,40,2023-03-10T23:51:36+00:00,8.3904931545258,4,versionB_stim.csv,JOLVersion_Recall.csv,"JOL Recall",JOL2,DIETARY,SACK,Study2,U,42,38,JOL,User,-,"How likely are you to correctly recall the second item in the pair?|Type your response on a scale from 0-100 and then press Enter.",Study/JOL,"Study Phase",8283,,,7364,7364,,,,0,1
MariaSmith,4tlyr1pu2v,"Mediated JOLs",1,41,2023-03-10T23:51:38+00:00,2.7812609672546,4,versionB_stim.csv,JOLVersion_Recall.csv,"JOL Recall",JOL2,BOTH,OUNCE,Study2,U,47,13,JOL,User,-,"How likely are you to correctly recall the second item in the pair?|Type your response on a scale from 0-100 and then press Enter.",Study/JOL,"Study Phase",2574,,,1670,1670,,,,0,1
MariaSmith,4tlyr1pu2v,"Mediated JOLs",1,42,2023-03-10T23:51:43+00:00,4.3147368431091,4,versionB_stim.csv,JOLVersion_Recall.csv,"JOL Recall",JOL2,KING,VASE,Study2,U,36,9,JOL,User,-,"How likely are you to correctly recall the second item in the pair?|Type your response on a scale from 0-100 and then press Enter.",Study/JOL,"Study Phase",4191,,,2553,2553,,,,0,1
MariaSmith,4tlyr1pu2v,"Mediated JOLs",1,43,2023-03-10T23:51:47+00:00,4.223836183548,4,versionB_stim.csv,JOLVersion_Recall.csv,"JOL Recall",JOL2,SUMMER,SNOW,Study2,M,6,28,JOL,User,-,"How likely are you to correctly recall the second item in the pair?|Type your response on a scale from 0-100 and then press Enter.",Study/JOL,"Study Phase",4098,,,2686,3253,,,,30,1
MariaSmith,4tlyr1pu2v,"Mediated JOLs",1,44,2023-03-10T23:51:49+00:00,2.4859099388123,4,versionB_stim.csv,JOLVersion_Recall.csv,"JOL Recall",JOL2,LEASE,TOIL,Study2,U,46,26,JOL,User,-,"How likely are you to correctly recall the second item in the pair?|Type your response on a scale from 0-100 and then press Enter.",Study/JOL,"Study Phase",2362,,,1492,1492,,,,0,1
MariaSmith,4tlyr1pu2v,"Mediated JOLs",1,45,2023-03-10T23:51:54+00:00,4.3988099098206,4,versionB_stim.csv,JOLVersion_Recall.csv,"JOL Recall",JOL2,BLAZE,FIRE,Study2,F,26,29,JOL,User,-,"How likely are you to correctly recall the second item in the pair?|Type your response on a scale from 0-100 and then press Enter.",Study/JOL,"Study Phase",4275,,,2772,3256,,,,50,1
MariaSmith,4tlyr1pu2v,"Mediated JOLs",1,46,2023-03-10T23:52:01+00:00,6.6797120571136,4,versionB_stim.csv,JOLVersion_Recall.csv,"JOL Recall",JOL2,SICK,HIDE,Study2,U,45,22,JOL,User,-,"How likely are you to correctly recall the second item in the pair?|Type your response on a scale from 0-100 and then press Enter.",Study/JOL,"Study Phase",6539,,,5538,5538,,,,0,1
MariaSmith,4tlyr1pu2v,"Mediated JOLs",1,47,2023-03-10T23:52:04+00:00,3.6331810951233,4,versionB_stim.csv,JOLVersion_Recall.csv,"JOL Recall",JOL2,CACTUS,PLANT,Study2,F,21,39,JOL,User,-,"How likely are you to correctly recall the second item in the pair?|Type your response on a scale from 0-100 and then press Enter.",Study/JOL,"Study Phase",3506,,,2049,2620,,,,50,1
MariaSmith,4tlyr1pu2v,"Mediated JOLs",1,48,2023-03-10T23:52:08+00:00,3.9875249862671,4,versionB_stim.csv,JOLVersion_Recall.csv,"JOL Recall",JOL2,HORNET,STING,Study2,F,30,20,JOL,User,-,"How likely are you to correctly recall the second item in the pair?|Type your response on a scale from 0-100 and then press Enter.",Study/JOL,"Study Phase",3868,,,2535,2947,,,,70,1
MariaSmith,4tlyr1pu2v,"Mediated JOLs",1,49,2023-03-10T23:52:13+00:00,4.4643578529358,4,versionB_stim.csv,JOLVersion_Recall.csv,"JOL Recall",JOL2,FEUD,FIGHT,Study2,F,31,18,JOL,User,-,"How likely are you to correctly recall the second item in the pair?|Type your response on a scale from 0-100 and then press Enter.",Study/JOL,"Study Phase",4306,,,2455,3033,,,,30,1
MariaSmith,4tlyr1pu2v,"Mediated JOLs",1,50,2023-03-10T23:52:17+00:00,4.0408520698547,4,versionB_stim.csv,JOLVersion_Recall.csv,"JOL Recall",JOL2,BRIDGE,WATER,Study2,F,35,35,JOL,User,-,"How likely are you to correctly recall the second item in the pair?|Type your response on a scale from 0-100 and then press Enter.",Study/JOL,"Study Phase",3914,,,2172,2524,,,,80,1
MariaSmith,4tlyr1pu2v,"Mediated JOLs",1,51,2023-03-10T23:52:24+00:00,7.5517320632935,4,versionB_stim.csv,JOLVersion_Recall.csv,"JOL Recall",JOL2,RAKE,SEED,Study2,M,14,49,JOL,User,-,"How likely are you to correctly recall the second item in the pair?|Type your response on a scale from 0-100 and then press Enter.",Study/JOL,"Study Phase",7420,,,3083,6472,,,,40,1
MariaSmith,4tlyr1pu2v,"Mediated JOLs",1,52,2023-03-10T23:52:28+00:00,3.9153318405151,4,versionB_stim.csv,JOLVersion_Recall.csv,"JOL Recall",JOL2,LEAGUE,BASEBALL,Study2,F,29,8,JOL,User,-,"How likely are you to correctly recall the second item in the pair?|Type your response on a scale from 0-100 and then press Enter.",Study/JOL,"Study Phase",3789,,,2679,2870,,,,90,1
MariaSmith,4tlyr1pu2v,"Mediated JOLs",1,53,2023-03-10T23:52:39+00:00,10.447527170181,4,versionB_stim.csv,JOLVersion_Recall.csv,"JOL Recall",JOL2,HAPPY,CAR,Study2,U,37,21,JOL,User,-,"How likely are you to correctly recall the second item in the pair?|Type your response on a scale from 0-100 and then press Enter.",Study/JOL,"Study Phase",10321,,,6891,6976,,,,50,1
MariaSmith,4tlyr1pu2v,"Mediated JOLs",1,54,2023-03-10T23:52:44+00:00,5.3045978546143,4,versionB_stim.csv,JOLVersion_Recall.csv,"JOL Recall",JOL2,DEATH,BUSINESS,Study2,U,44,27,JOL,User,-,"How likely are you to correctly recall the second item in the pair?|Type your response on a scale from 0-100 and then press Enter.",Study/JOL,"Study Phase",5161,,,4075,4075,,,,0,1
MariaSmith,4tlyr1pu2v,"Mediated JOLs",1,55,2023-03-10T23:52:49+00:00,5.2231841087341,4,versionB_stim.csv,JOLVersion_Recall.csv,"JOL Recall",JOL2,MIRROR,CHILDREN,Study2,U,49,50,JOL,User,-,"How likely are you to correctly recall the second item in the pair?|Type your response on a scale from 0-100 and then press Enter.",Study/JOL,"Study Phase",5079,,,2060,3826,,,,30,1
MariaSmith,4tlyr1pu2v,"Mediated JOLs",1,56,2023-03-10T23:52:57+00:00,7.8144879341125,4,versionB_stim.csv,JOLVersion_Recall.csv,"JOL Recall",JOL2,SHRIMP,FISH,BUFFER4,Buffer,53,53,JOL,User,-,"How likely are you to correctly recall the second item in the pair?|Type your response on a scale from 0-100 and then press Enter.",Study/JOL,BUFFER2,7684,,,6479,6695,,,,50,1
MariaSmith,4tlyr1pu2v,"Mediated JOLs",1,57,2023-03-10T23:53:00+00:00,3.4391701221466,4,versionB_stim.csv,JOLVersion_Recall.csv,"JOL Recall",JOL2,PITCHER,CATCHER,BUFFER1,Buffer,57,57,JOL,User,-,"How likely are you to correctly recall the second item in the pair?|Type your response on a scale from 0-100 and then press Enter.",Study/JOL,BUFFER2,3315,,,2108,2295,,,,90,1
MariaSmith,4tlyr1pu2v,"Mediated JOLs",1,58,2023-03-10T23:53:04+00:00,3.875540971756,4,versionB_stim.csv,JOLVersion_Recall.csv,"JOL Recall",JOL2,MALT,CHOCOLATE,BUFFER2,Buffer,108,109,JOL,User,-,"How likely are you to correctly recall the second item in the pair?|Type your response on a scale from 0-100 and then press Enter.",Study/JOL,BUFFER2,3754,,,2658,2899,,,,80,1
MariaSmith,4tlyr1pu2v,"Mediated JOLs",1,59,2023-03-10T23:53:13+00:00,8.8231010437012,4,versionB_stim.csv,JOLVersion_Recall.csv,"JOL Recall",JOL2,TREES,GREEN,BUFFER1,Buffer,56,60,JOL,User,-,"How likely are you to correctly recall the second item in the pair?|Type your response on a scale from 0-100 and then press Enter.",Study/JOL,BUFFER2,8694,,,6810,7778,,,,90,1
MariaSmith,4tlyr1pu2v,"Mediated JOLs",1,60,2023-03-10T23:53:16+00:00,2.6051669120789,4,versionB_stim.csv,JOLVersion_Recall.csv,"JOL Recall",JOL2,MOON,SPACE,BUFFER2,Buffer,109,110,JOL,User,-,"How likely are you to correctly recall the second item in the pair?|Type your response on a scale from 0-100 and then press Enter.",Study/JOL,BUFFER2,2474,,,1397,1595,,,,90,1
MariaSmith,4tlyr1pu2v,"Mediated JOLs",1,61,2023-03-10T23:53:18+00:00,1.9160900115967,4,versionB_stim.csv,JOLVersion_Recall.csv,"JOL Recall",JOL2,,,,,,0,Instruct,User,-,"You have completed this section. Please press Enter.",Filler_Instruction,Instruct2,1795,,,-1,-1,,,,,1
MariaSmith,4tlyr1pu2v,"Mediated JOLs",1,62,2023-03-10T23:55:18+00:00,120.1977519989,4,versionB_stim.csv,JOLVersion_Recall.csv,"JOL Recall",JOL2,,,,,,0,FreeRecall,120,120,"Please list the 50 US states in alphabetical order. The task will automatically advance to the next screen after two minutes.",,Filler1,120004,"Alabama Alaska Arkansas, Arizona California Colorado Connecticut Deleware Florida Georgia Idaho Indiana Iowa ",0,4398,113026,0,0,,,1
MariaSmith,4tlyr1pu2v,"Mediated JOLs",1,63,2023-03-10T23:55:29+00:00,10.957956075668,4,versionB_stim.csv,JOLVersion_Recall.csv,"JOL Recall",JOL2,,,,,,0,Instruct,-,10,"You will now be presented with the first word from each of the previously studied item pairs. Please type the missing word. If you do not know the word, you may guess or press Enter to skip forward to the next pair.",,Instruct3,10790,,,-1,-1,,,,,1
MariaSmith,4tlyr1pu2v,"Mediated JOLs",1,64,2023-03-10T23:55:35+00:00,6.6152667999268,4,versionB_stim.csv,JOLVersion_Recall.csv,"JOL Recall",JOL2,GRILL,THIGH,Study2,M,17,34,Test,User,-,,Recall,Recall1,6387,,0,-1,-1,0,0,,,1
MariaSmith,4tlyr1pu2v,"Mediated JOLs",1,65,2023-03-10T23:55:40+00:00,4.7029600143433,4,versionB_stim.csv,JOLVersion_Recall.csv,"JOL Recall",JOL2,INCENSE,SMELL,Study2,F,28,7,Test,User,-,,Recall,Recall1,4567,Smell,100,1557,3149,1,1,,,1
MariaSmith,4tlyr1pu2v,"Mediated JOLs",1,66,2023-03-10T23:55:44+00:00,3.7229611873627,4,versionB_stim.csv,JOLVersion_Recall.csv,"JOL Recall",JOL2,PANTS,COLLAR,Study2,M,8,19,Test,User,-,,Recall,Recall1,3592,,0,-1,-1,0,0,,,1
MariaSmith,4tlyr1pu2v,"Mediated JOLs",1,67,2023-03-10T23:55:47+00:00,2.8087978363037,4,versionB_stim.csv,JOLVersion_Recall.csv,"JOL Recall",JOL2,STRONG,ACCIDENT,Study2,U,39,33,Test,User,-,,Recall,Recall1,2679,,0,-1,-1,0,0,,,1
MariaSmith,4tlyr1pu2v,"Mediated JOLs",1,68,2023-03-10T23:55:49+00:00,2.0843329429626,4,versionB_stim.csv,JOLVersion_Recall.csv,"JOL Recall",JOL2,LEASE,TOIL,Study2,U,46,26,Test,User,-,,Recall,Recall1,1955,,0,-1,-1,0,0,,,1
MariaSmith,4tlyr1pu2v,"Mediated JOLs",1,69,2023-03-10T23:55:51+00:00,2.817146062851,4,versionB_stim.csv,JOLVersion_Recall.csv,"JOL Recall",JOL2,ARTERY,BRONZE,Study2,U,48,48,Test,User,-,,Recall,Recall1,2693,,0,-1,-1,0,0,,,1
MariaSmith,4tlyr1pu2v,"Mediated JOLs",1,70,2023-03-10T23:55:58+00:00,6.8709361553192,4,versionB_stim.csv,JOLVersion_Recall.csv,"JOL Recall",JOL2,LEAGUE,BASEBALL,Study2,F,29,8,Test,User,-,,Recall,Recall1,6744,Baseball,100,2597,5698,1,1,,,1
MariaSmith,4tlyr1pu2v,"Mediated JOLs",1,71,2023-03-10T23:56:04+00:00,5.897656917572,4,versionB_stim.csv,JOLVersion_Recall.csv,"JOL Recall",JOL2,RAZOR,MUSCLE,Study2,M,20,17,Test,User,-,,Recall,Recall1,5762,,0,-1,-1,0,0,,,1
MariaSmith,4tlyr1pu2v,"Mediated JOLs",1,72,2023-03-10T23:56:06+00:00,1.5913770198822,4,versionB_stim.csv,JOLVersion_Recall.csv,"JOL Recall",JOL2,ART,WOLF,Study2,U,38,32,Test,User,-,,Recall,Recall1,1464,,0,-1,-1,0,0,,,1
MariaSmith,4tlyr1pu2v,"Mediated JOLs",1,73,2023-03-10T23:56:10+00:00,4.6466150283813,4,versionB_stim.csv,JOLVersion_Recall.csv,"JOL Recall",JOL2,CHILL,COLD,Study2,F,32,11,Test,User,-,,Recall,Recall1,4523,Cold,100,2552,3523,1,1,,,1
MariaSmith,4tlyr1pu2v,"Mediated JOLs",1,74,2023-03-10T23:56:19+00:00,8.132483959198,4,versionB_stim.csv,JOLVersion_Recall.csv,"JOL Recall",JOL2,EYES,SMELL,Study2,M,10,40,Test,User,-,,Recall,Recall1,8004,Smell,100,2336,7022,1,1,,,1
MariaSmith,4tlyr1pu2v,"Mediated JOLs",1,75,2023-03-10T23:56:22+00:00,3.7679550647736,4,versionB_stim.csv,JOLVersion_Recall.csv,"JOL Recall",JOL2,HORNET,STING,Study2,F,30,20,Test,User,-,,Recall,Recall1,3640,Sting,100,1503,2634,1,1,,,1
MariaSmith,4tlyr1pu2v,"Mediated JOLs",1,76,2023-03-10T23:56:27+00:00,4.471156835556,4,versionB_stim.csv,JOLVersion_Recall.csv,"JOL Recall",JOL2,CACTUS,PLANT,Study2,F,21,39,Test,User,-,,Recall,Recall1,4336,Plant,100,1979,3269,1,1,,,1
MariaSmith,4tlyr1pu2v,"Mediated JOLs",1,77,2023-03-10T23:56:30+00:00,3.2845511436462,4,versionB_stim.csv,JOLVersion_Recall.csv,"JOL Recall",JOL2,CHISEL,HAMMER,Study2,F,23,36,Test,User,-,,Recall,Recall1,3136,,0,-1,-1,0,0,,,1
MariaSmith,4tlyr1pu2v,"Mediated JOLs",1,78,2023-03-10T23:56:33+00:00,2.5710580348969,4,versionB_stim.csv,JOLVersion_Recall.csv,"JOL Recall",JOL2,NURSE,LAWYER,Study2,M,11,15,Test,User,-,,Recall,Recall1,2443,,0,-1,-1,0,0,,,1
MariaSmith,4tlyr1pu2v,"Mediated JOLs",1,79,2023-03-10T23:56:36+00:00,3.3945348262787,4,versionB_stim.csv,JOLVersion_Recall.csv,"JOL Recall",JOL2,SUGAR,RIDDLE,Study2,U,40,51,Test,User,-,,Recall,Recall1,3268,,0,-1,-1,0,0,,,1
MariaSmith,4tlyr1pu2v,"Mediated JOLs",1,80,2023-03-10T23:56:41+00:00,5.23077917099,4,versionB_stim.csv,JOLVersion_Recall.csv,"JOL Recall",JOL2,VALLEY,PEAK,Study2,M,18,42,Test,User,-,,Recall,Recall1,5010,Peak,100,2732,3854,1,1,,,1
MariaSmith,4tlyr1pu2v,"Mediated JOLs",1,81,2023-03-10T23:56:47+00:00,5.3223187923431,4,versionB_stim.csv,JOLVersion_Recall.csv,"JOL Recall",JOL2,WINDOW,KNOB,Study2,M,19,46,Test,User,-,,Recall,Recall1,5198,Knob,100,3094,4219,1,1,,,1
MariaSmith,4tlyr1pu2v,"Mediated JOLs",1,82,2023-03-10T23:57:18+00:00,31.026075124741,4,versionB_stim.csv,JOLVersion_Recall.csv,"JOL Recall",JOL2,HAPPY,CAR,Study2,U,37,21,Test,User,-,,Recall,Recall1,30891,,0,-1,-1,0,0,,,1
MariaSmith,4tlyr1pu2v,"Mediated JOLs",1,83,2023-03-10T23:57:19+00:00,1.6261279582977,4,versionB_stim.csv,JOLVersion_Recall.csv,"JOL Recall",JOL2,BOTH,OUNCE,Study2,U,47,13,Test,User,-,,Recall,Recall1,1494,,0,-1,-1,0,0,,,1
MariaSmith,4tlyr1pu2v,"Mediated JOLs",1,84,2023-03-10T23:57:24+00:00,4.3097329139709,4,versionB_stim.csv,JOLVersion_Recall.csv,"JOL Recall",JOL2,RAKE,SEED,Study2,M,14,49,Test,User,-,,Recall,Recall1,4187,Seed,100,1994,3083,1,1,,,1
MariaSmith,4tlyr1pu2v,"Mediated JOLs",1,85,2023-03-10T23:57:29+00:00,5.7846810817719,4,versionB_stim.csv,JOLVersion_Recall.csv,"JOL Recall",JOL2,MIRROR,CHILDREN,Study2,U,49,50,Test,User,-,,Recall,Recall1,5665,Children,100,1935,4414,1,1,,,1
MariaSmith,4tlyr1pu2v,"Mediated JOLs",1,86,2023-03-10T23:57:35+00:00,5.2254929542542,4,versionB_stim.csv,JOLVersion_Recall.csv,"JOL Recall",JOL2,FEUD,FIGHT,Study2,F,31,18,Test,User,-,,Recall,Recall1,5098,Fight,100,2264,3828,1,1,,,1
MariaSmith,4tlyr1pu2v,"Mediated JOLs",1,87,2023-03-10T23:57:43+00:00,8.7260141372681,4,versionB_stim.csv,JOLVersion_Recall.csv,"JOL Recall",JOL2,SUMMER,SNOW,Study2,M,6,28,Test,User,-,,Recall,Recall1,8597,Cold,25,5069,7343,0,0,,,1
MariaSmith,4tlyr1pu2v,"Mediated JOLs",1,88,2023-03-10T23:57:45+00:00,1.7019250392914,4,versionB_stim.csv,JOLVersion_Recall.csv,"JOL Recall",JOL2,PUSH,CLUTTER,Study2,U,41,12,Test,User,-,,Recall,Recall1,1583,,0,-1,-1,0,0,,,1
MariaSmith,4tlyr1pu2v,"Mediated JOLs",1,89,2023-03-10T23:57:49+00:00,3.9460139274597,4,versionB_stim.csv,JOLVersion_Recall.csv,"JOL Recall",JOL2,BRIDGE,WATER,Study2,F,35,35,Test,User,-,,Recall,Recall1,3826,Water,100,1443,2576,1,1,,,1
MariaSmith,4tlyr1pu2v,"Mediated JOLs",1,90,2023-03-10T23:57:53+00:00,4.1471948623657,4,versionB_stim.csv,JOLVersion_Recall.csv,"JOL Recall",JOL2,TRAP,CAVE,Study2,M,15,43,Test,User,-,,Recall,Recall1,4015,,0,-1,-1,0,0,,,1
MariaSmith,4tlyr1pu2v,"Mediated JOLs",1,91,2023-03-10T23:57:55+00:00,1.7933599948883,4,versionB_stim.csv,JOLVersion_Recall.csv,"JOL Recall",JOL2,HEAVY,FEATHER,Study2,M,13,30,Test,User,-,,Recall,Recall1,1669,,0,-1,-1,0,0,,,1
MariaSmith,4tlyr1pu2v,"Mediated JOLs",1,92,2023-03-10T23:58:00+00:00,5.0893461704254,4,versionB_stim.csv,JOLVersion_Recall.csv,"JOL Recall",JOL2,HERD,COW,Study2,F,33,24,Test,User,-,,Recall,Recall1,4956,Cow,100,1477,3545,1,1,,,1
MariaSmith,4tlyr1pu2v,"Mediated JOLs",1,93,2023-03-10T23:58:03+00:00,3.0287230014801,4,versionB_stim.csv,JOLVersion_Recall.csv,"JOL Recall",JOL2,KING,VASE,Study2,U,36,9,Test,User,-,,Recall,Recall1,2907,,0,-1,-1,0,0,,,1
MariaSmith,4tlyr1pu2v,"Mediated JOLs",1,94,2023-03-10T23:58:08+00:00,4.9995079040527,4,versionB_stim.csv,JOLVersion_Recall.csv,"JOL Recall",JOL2,WASP,BUG,Study2,F,34,16,Test,User,-,,Recall,Recall1,4880,Bug,100,2453,3399,1,1,,,1
MariaSmith,4tlyr1pu2v,"Mediated JOLs",1,95,2023-03-10T23:58:11+00:00,2.5625669956207,4,versionB_stim.csv,JOLVersion_Recall.csv,"JOL Recall",JOL2,SICK,HIDE,Study2,U,45,22,Test,User,-,,Recall,Recall1,2435,,0,-1,-1,0,0,,,1
MariaSmith,4tlyr1pu2v,"Mediated JOLs",1,96,2023-03-10T23:58:13+00:00,2.4658150672913,4,versionB_stim.csv,JOLVersion_Recall.csv,"JOL Recall",JOL2,CASH,LEG,Study2,U,50,23,Test,User,-,,Recall,Recall1,2339,,0,-1,-1,0,0,,,1
MariaSmith,4tlyr1pu2v,"Mediated JOLs",1,97,2023-03-10T23:58:18+00:00,4.6176929473877,4,versionB_stim.csv,JOLVersion_Recall.csv,"JOL Recall",JOL2,SOAP,DRINK,Study2,M,12,41,Test,User,-,,Recall,Recall1,4493,Drink,100,1745,3152,1,1,,,1
MariaSmith,4tlyr1pu2v,"Mediated JOLs",1,98,2023-03-10T23:58:20+00:00,1.8271880149841,4,versionB_stim.csv,JOLVersion_Recall.csv,"JOL Recall",JOL2,REALITY,ISLAND,Study2,M,9,25,Test,User,-,,Recall,Recall1,1704,,0,-1,-1,0,0,,,1
MariaSmith,4tlyr1pu2v,"Mediated JOLs",1,99,2023-03-10T23:58:24+00:00,4.2384839057922,4,versionB_stim.csv,JOLVersion_Recall.csv,"JOL Recall",JOL2,DIETARY,SACK,Study2,U,42,38,Test,User,-,,Recall,Recall1,4096,,0,-1,-1,0,0,,,1
MariaSmith,4tlyr1pu2v,"Mediated JOLs",1,100,2023-03-10T23:58:30+00:00,6.5856320858002,4,versionB_stim.csv,JOLVersion_Recall.csv,"JOL Recall",JOL2,ATTIRE,CLOTHES,Study2,F,24,44,Test,User,-,,Recall,Recall1,6458,Clothes,100,2036,4393,1,1,,,1
MariaSmith,4tlyr1pu2v,"Mediated JOLs",1,101,2023-03-10T23:58:32+00:00,1.5839121341705,4,versionB_stim.csv,JOLVersion_Recall.csv,"JOL Recall",JOL2,OVEN,BASKET,Study2,M,16,31,Test,User,-,,Recall,Recall1,1452,,0,-1,-1,0,0,,,1
MariaSmith,4tlyr1pu2v,"Mediated JOLs",1,102,2023-03-10T23:58:36+00:00,4.5412209033966,4,versionB_stim.csv,JOLVersion_Recall.csv,"JOL Recall",JOL2,SCHOOL,STOP,Study2,M,7,10,Test,User,-,,Recall,Recall1,4400,Stop,100,2143,3148,1,1,,,1
MariaSmith,4tlyr1pu2v,"Mediated JOLs",1,103,2023-03-10T23:58:40+00:00,3.5150849819183,4,versionB_stim.csv,JOLVersion_Recall.csv,"JOL Recall",JOL2,CHOP,CUT,Study2,F,22,14,Test,User,-,,Recall,Recall1,3387,Cut,100,1591,2284,1,1,,,1
MariaSmith,4tlyr1pu2v,"Mediated JOLs",1,104,2023-03-10T23:58:43+00:00,3.3034338951111,4,versionB_stim.csv,JOLVersion_Recall.csv,"JOL Recall",JOL2,CHERRY,RED,Study2,F,25,45,Test,User,-,,Recall,Recall1,3179,Red,100,1504,2010,1,1,,,1
MariaSmith,4tlyr1pu2v,"Mediated JOLs",1,105,2023-03-10T23:58:49+00:00,5.8190310001373,4,versionB_stim.csv,JOLVersion_Recall.csv,"JOL Recall",JOL2,DOCUMENT,PAPER,Study2,F,27,37,Test,User,-,,Recall,Recall1,5694,Paper,100,2589,4751,1,1,,,1
MariaSmith,4tlyr1pu2v,"Mediated JOLs",1,106,2023-03-10T23:59:01+00:00,11.709724187851,4,versionB_stim.csv,JOLVersion_Recall.csv,"JOL Recall",JOL2,BLAZE,FIRE,Study2,F,26,29,Test,User,-,,Recall,Recall1,11569,,0,-1,-1,0,0,,,1
MariaSmith,4tlyr1pu2v,"Mediated JOLs",1,107,2023-03-10T23:59:07+00:00,5.9567198753357,4,versionB_stim.csv,JOLVersion_Recall.csv,"JOL Recall",JOL2,DEATH,BUSINESS,Study2,U,44,27,Test,User,-,,Recall,Recall1,5811,,0,-1,-1,0,0,,,1
MariaSmith,4tlyr1pu2v,"Mediated JOLs",1,108,2023-03-10T23:59:11+00:00,3.8198320865631,4,versionB_stim.csv,JOLVersion_Recall.csv,"JOL Recall",JOL2,BENCH,HORN,Study2,U,43,47,Test,User,-,,Recall,Recall1,3692,,0,-1,-1,0,0,,,1
MariaSmith,4tlyr1pu2v,"Mediated JOLs",1,109,2023-03-10T23:59:32+00:00,21.087450027466,4,versionB_stim.csv,JOLVersion_Recall.csv,"JOL Recall",JOL2,,,,,,0,Instruct,-,10,"You will now be presented with a new set of word pairs. Please study each pair. Remember that your memory will be tested! When finished, press Enter to move to the next pair.",Initial_Instruct,Instruct4,20942,,,-1,-1,,,,,1
MariaSmith,4tlyr1pu2v,"Mediated JOLs",1,110,2023-03-10T23:59:44+00:00,12.364854812622,4,versionB_stim.csv,JOLVersion_Recall.csv,"JOL Recall",JOL2,,,,,,0,Instruct,,10,"You will again be asked to rate your ability to remember these items using a 0 to 100 scale. Remember to use the full range of the scale!",,Instruct10,12228,,,-1,-1,,,,,1
MariaSmith,4tlyr1pu2v,"Mediated JOLs",1,111,2023-03-10T23:59:46+00:00,1.7187550067902,4,versionB_stim.csv,JOLVersion_Recall.csv,"JOL Recall",JOL2,,,,,,0,Instruct,User,-,"Press Enter when you are readty to begin",,Instruct11,1591,,,-1,-1,,,,,1
MariaSmith,4tlyr1pu2v,"Mediated JOLs",1,112,2023-03-10T23:59:50+00:00,4.2418601512909,4,versionB_stim.csv,JOLVersion_Recall.csv,"JOL Recall",JOL2,THING,STUFF,BUFFER2,Buffer,110,107,JOL,User,-,"How likely are you to correctly recall the second item in the pair?|Type your response on a scale from 0-100 and then press Enter.",Study/JOL,BUFFER2,4110,,,2774,2961,,,,90,1
MariaSmith,4tlyr1pu2v,"Mediated JOLs",1,113,2023-03-10T23:59:53+00:00,3.1871230602264,4,versionB_stim.csv,JOLVersion_Recall.csv,"JOL Recall",JOL2,CAMP,ADVENTURE,BUFFER4,Buffer,55,55,JOL,User,-,"How likely are you to correctly recall the second item in the pair?|Type your response on a scale from 0-100 and then press Enter.",Study/JOL,BUFFER2,3046,,,1829,2031,,,,90,1
MariaSmith,4tlyr1pu2v,"Mediated JOLs",1,114,2023-03-10T23:59:59+00:00,5.6026148796082,4,versionB_stim.csv,JOLVersion_Recall.csv,"JOL Recall",JOL2,PEANUT,BUTTER,BUFFER1,Buffer,58,61,JOL,User,-,"How likely are you to correctly recall the second item in the pair?|Type your response on a scale from 0-100 and then press Enter.",Study/JOL,BUFFER2,5477,,,3583,4308,,,,100,1
MariaSmith,4tlyr1pu2v,"Mediated JOLs",1,115,2023-03-11T00:00:02+00:00,3.3321840763092,4,versionB_stim.csv,JOLVersion_Recall.csv,"JOL Recall",JOL2,SPACE,JAM,BUFFER1,Buffer,60,59,JOL,User,-,"How likely are you to correctly recall the second item in the pair?|Type your response on a scale from 0-100 and then press Enter.",Study/JOL,BUFFER2,3210,,,1723,2354,,,,100,1
MariaSmith,4tlyr1pu2v,"Mediated JOLs",1,116,2023-03-11T00:00:06+00:00,4.0922498703003,4,versionB_stim.csv,JOLVersion_Recall.csv,"JOL Recall",JOL2,SCARE,FRIGHT,BUFFER1,Buffer,59,58,JOL,User,-,"How likely are you to correctly recall the second item in the pair?|Type your response on a scale from 0-100 and then press Enter.",Study/JOL,BUFFER2,3946,,,1948,2242,,,,80,1
MariaSmith,4tlyr1pu2v,"Mediated JOLs",1,117,2023-03-11T00:00:10+00:00,3.5044250488281,4,versionB_stim.csv,JOLVersion_Recall.csv,"JOL Recall",JOL2,CREDIT,CARD,Study1,F,88,70,JOL,User,-,"How likely are you to correctly recall the second item in the pair?|Type your response on a scale from 0-100 and then press Enter.",Study/JOL,"Study Phase2",3384,,,1688,2404,,,,100,1
MariaSmith,4tlyr1pu2v,"Mediated JOLs",1,118,2023-03-11T00:00:16+00:00,6.2444360256195,4,versionB_stim.csv,JOLVersion_Recall.csv,"JOL Recall",JOL2,CRACKLE,ELECTION,Study1,U,94,83,JOL,User,-,"How likely are you to correctly recall the second item in the pair?|Type your response on a scale from 0-100 and then press Enter.",Study/JOL,"Study Phase2",6116,,,2582,3043,,,,40,1
MariaSmith,4tlyr1pu2v,"Mediated JOLs",1,119,2023-03-11T00:00:21+00:00,4.5355498790741,4,versionB_stim.csv,JOLVersion_Recall.csv,"JOL Recall",JOL2,SOON,BELT,Study1,U,101,88,JOL,User,-,"How likely are you to correctly recall the second item in the pair?|Type your response on a scale from 0-100 and then press Enter.",Study/JOL,"Study Phase2",4392,,,2264,2811,,,,20,1
MariaSmith,4tlyr1pu2v,"Mediated JOLs",1,120,2023-03-11T00:00:26+00:00,5.6916611194611,4,versionB_stim.csv,JOLVersion_Recall.csv,"JOL Recall",JOL2,BAT,BOUNCE,Study1,M,67,74,JOL,User,-,"How likely are you to correctly recall the second item in the pair?|Type your response on a scale from 0-100 and then press Enter.",Study/JOL,"Study Phase2",5556,,,3895,4481,,,,50,1
MariaSmith,4tlyr1pu2v,"Mediated JOLs",1,121,2023-03-11T00:00:30+00:00,3.4009759426117,4,versionB_stim.csv,JOLVersion_Recall.csv,"JOL Recall",JOL2,SCALP,HEAD,Study1,F,78,63,JOL,User,-,"How likely are you to correctly recall the second item in the pair?|Type your response on a scale from 0-100 and then press Enter.",Study/JOL,"Study Phase2",3279,,,2057,2316,,,,80,1
MariaSmith,4tlyr1pu2v,"Mediated JOLs",1,122,2023-03-11T00:00:33+00:00,3.5445590019226,4,versionB_stim.csv,JOLVersion_Recall.csv,"JOL Recall",JOL2,DAY,DARK,Study1,M,73,96,JOL,User,-,"How likely are you to correctly recall the second item in the pair?|Type your response on a scale from 0-100 and then press Enter.",Study/JOL,"Study Phase2",3418,,,2072,2310,,,,80,1
MariaSmith,4tlyr1pu2v,"Mediated JOLs",1,123,2023-03-11T00:00:38+00:00,4.4986219406128,4,versionB_stim.csv,JOLVersion_Recall.csv,"JOL Recall",JOL2,GIVE,STEAK,Study1,U,93,81,JOL,User,-,"How likely are you to correctly recall the second item in the pair?|Type your response on a scale from 0-100 and then press Enter.",Study/JOL,"Study Phase2",4375,,,2451,3017,,,,50,1
MariaSmith,4tlyr1pu2v,"Mediated JOLs",1,124,2023-03-11T00:00:41+00:00,3.0004060268402,4,versionB_stim.csv,JOLVersion_Recall.csv,"JOL Recall",JOL2,AFFECTION,LOVE,Study1,F,86,93,JOL,User,-,"How likely are you to correctly recall the second item in the pair?|Type your response on a scale from 0-100 and then press Enter.",Study/JOL,"Study Phase2",2874,,,1633,1922,,,,80,1
MariaSmith,4tlyr1pu2v,"Mediated JOLs",1,125,2023-03-11T00:00:46+00:00,5.0746550559998,4,versionB_stim.csv,JOLVersion_Recall.csv,"JOL Recall",JOL2,LION,STRIPES,Study1,M,61,79,JOL,User,-,"How likely are you to correctly recall the second item in the pair?|Type your response on a scale from 0-100 and then press Enter.",Study/JOL,"Study Phase2",4950,,,3655,3919,,,,80,1
MariaSmith,4tlyr1pu2v,"Mediated JOLs",1,126,2023-03-11T00:00:49+00:00,3.4484190940857,4,versionB_stim.csv,JOLVersion_Recall.csv,"JOL Recall",JOL2,MEAT,KEYS,Study1,U,96,100,JOL,User,-,"How likely are you to correctly recall the second item in the pair?|Type your response on a scale from 0-100 and then press Enter.",Study/JOL,"Study Phase2",3319,,,1872,2338,,,,30,1
MariaSmith,4tlyr1pu2v,"Mediated JOLs",1,127,2023-03-11T00:00:54+00:00,4.5260338783264,4,versionB_stim.csv,JOLVersion_Recall.csv,"JOL Recall",JOL2,TEMPERATURE,MORNING,Study1,U,103,82,JOL,User,-,"How likely are you to correctly recall the second item in the pair?|Type your response on a scale from 0-100 and then press Enter.",Study/JOL,"Study Phase2",4401,,,3003,3393,,,,40,1
MariaSmith,4tlyr1pu2v,"Mediated JOLs",1,128,2023-03-11T00:00:58+00:00,3.8899409770966,4,versionB_stim.csv,JOLVersion_Recall.csv,"JOL Recall",JOL2,CIRCLE,DANCE,Study1,M,68,73,JOL,User,-,"How likely are you to correctly recall the second item in the pair?|Type your response on a scale from 0-100 and then press Enter.",Study/JOL,"Study Phase2",3768,,,2157,2634,,,,40,1
MariaSmith,4tlyr1pu2v,"Mediated JOLs",1,129,2023-03-11T00:01:03+00:00,5.3652820587158,4,versionB_stim.csv,JOLVersion_Recall.csv,"JOL Recall",JOL2,FUZZY,BANG,Study1,U,105,102,JOL,User,-,"How likely are you to correctly recall the second item in the pair?|Type your response on a scale from 0-100 and then press Enter.",Study/JOL,"Study Phase2",5243,,,3135,3654,,,,40,1
MariaSmith,4tlyr1pu2v,"Mediated JOLs",1,130,2023-03-11T00:01:07+00:00,4.2219021320343,4,versionB_stim.csv,JOLVersion_Recall.csv,"JOL Recall",JOL2,ROOT,PLANT,Study1,F,80,68,JOL,User,-,"How likely are you to correctly recall the second item in the pair?|Type your response on a scale from 0-100 and then press Enter.",Study/JOL,"Study Phase2",4094,,,2340,2789,,,,60,1
MariaSmith,4tlyr1pu2v,"Mediated JOLs",1,131,2023-03-11T00:01:13+00:00,6.187374830246,4,versionB_stim.csv,JOLVersion_Recall.csv,"JOL Recall",JOL2,STRETCH,CLOTH,Study1,U,92,97,JOL,User,-,"How likely are you to correctly recall the second item in the pair?|Type your response on a scale from 0-100 and then press Enter.",Study/JOL,"Study Phase2",6056,,,4662,5047,,,,40,1
MariaSmith,4tlyr1pu2v,"Mediated JOLs",1,132,2023-03-11T00:01:17+00:00,4.0134620666504,4,versionB_stim.csv,JOLVersion_Recall.csv,"JOL Recall",JOL2,TOOTH,HAIR,Study1,M,74,99,JOL,User,-,"How likely are you to correctly recall the second item in the pair?|Type your response on a scale from 0-100 and then press Enter.",Study/JOL,"Study Phase2",3892,,,2282,2964,,,,60,1
MariaSmith,4tlyr1pu2v,"Mediated JOLs",1,133,2023-03-11T00:01:20+00:00,2.8793048858643,4,versionB_stim.csv,JOLVersion_Recall.csv,"JOL Recall",JOL2,WAGE,MONEY,Study1,F,77,86,JOL,User,-,"How likely are you to correctly recall the second item in the pair?|Type your response on a scale from 0-100 and then press Enter.",Study/JOL,"Study Phase2",2753,,,1506,1818,,,,70,1
MariaSmith,4tlyr1pu2v,"Mediated JOLs",1,134,2023-03-11T00:01:24+00:00,3.4694621562958,4,versionB_stim.csv,JOLVersion_Recall.csv,"JOL Recall",JOL2,CAKE,HAND,Study1,U,104,76,JOL,User,-,"How likely are you to correctly recall the second item in the pair?|Type your response on a scale from 0-100 and then press Enter.",Study/JOL,"Study Phase2",3346,,,1970,2414,,,,40,1
MariaSmith,4tlyr1pu2v,"Mediated JOLs",1,135,2023-03-11T00:01:31+00:00,6.9663739204407,4,versionB_stim.csv,JOLVersion_Recall.csv,"JOL Recall",JOL2,KEYS,ROD,Study1,U,100,89,JOL,User,-,"How likely are you to correctly recall the second item in the pair?|Type your response on a scale from 0-100 and then press Enter.",Study/JOL,"Study Phase2",6826,,,4738,5222,,,,40,1
MariaSmith,4tlyr1pu2v,"Mediated JOLs",1,136,2023-03-11T00:01:34+00:00,3.5634019374847,4,versionB_stim.csv,JOLVersion_Recall.csv,"JOL Recall",JOL2,BIRTHDAY,PIE,Study1,M,64,101,JOL,User,-,"How likely are you to correctly recall the second item in the pair?|Type your response on a scale from 0-100 and then press Enter.",Study/JOL,"Study Phase2",3432,,,2007,2436,,,,40,1
MariaSmith,4tlyr1pu2v,"Mediated JOLs",1,137,2023-03-11T00:01:40+00:00,5.3369011878967,4,versionB_stim.csv,JOLVersion_Recall.csv,"JOL Recall",JOL2,NAP,SLEEP,Study1,F,84,95,JOL,User,-,"How likely are you to correctly recall the second item in the pair?|Type your response on a scale from 0-100 and then press Enter.",Study/JOL,"Study Phase2",5202,,,2442,4161,,,,70,1
MariaSmith,4tlyr1pu2v,"Mediated JOLs",1,138,2023-03-11T00:01:43+00:00,3.696671962738,4,versionB_stim.csv,JOLVersion_Recall.csv,"JOL Recall",JOL2,MAZE,PHONE,Study1,U,97,98,JOL,User,-,"How likely are you to correctly recall the second item in the pair?|Type your response on a scale from 0-100 and then press Enter.",Study/JOL,"Study Phase2",3456,,,2028,2496,,,,40,1
MariaSmith,4tlyr1pu2v,"Mediated JOLs",1,139,2023-03-11T00:01:49+00:00,5.5215609073639,4,versionB_stim.csv,JOLVersion_Recall.csv,"JOL Recall",JOL2,LISTEN,FICTION,Study1,U,99,92,JOL,User,-,"How likely are you to correctly recall the second item in the pair?|Type your response on a scale from 0-100 and then press Enter.",Study/JOL,"Study Phase2",5392,,,3423,4291,,,,50,1
MariaSmith,4tlyr1pu2v,"Mediated JOLs",1,140,2023-03-11T00:01:52+00:00,3.0122950077057,4,versionB_stim.csv,JOLVersion_Recall.csv,"JOL Recall",JOL2,TUNA,FISH,Study1,F,90,71,JOL,User,-,"How likely are you to correctly recall the second item in the pair?|Type your response on a scale from 0-100 and then press Enter.",Study/JOL,"Study Phase2",2891,,,1805,2043,,,,80,1
MariaSmith,4tlyr1pu2v,"Mediated JOLs",1,141,2023-03-11T00:01:55+00:00,3.515734910965,4,versionB_stim.csv,JOLVersion_Recall.csv,"JOL Recall",JOL2,TREE,SYRUP,Study1,M,66,105,JOL,User,-,"How likely are you to correctly recall the second item in the pair?|Type your response on a scale from 0-100 and then press Enter.",Study/JOL,"Study Phase2",3386,,,1671,1966,,,,70,1
MariaSmith,4tlyr1pu2v,"Mediated JOLs",1,142,2023-03-11T00:02:01+00:00,5.3250041007996,4,versionB_stim.csv,JOLVersion_Recall.csv,"JOL Recall",JOL2,VEHICLE,CHARM,Study1,U,95,87,JOL,User,-,"How likely are you to correctly recall the second item in the pair?|Type your response on a scale from 0-100 and then press Enter.",Study/JOL,"Study Phase2",5189,,,1542,4166,,,,50,1
MariaSmith,4tlyr1pu2v,"Mediated JOLs",1,143,2023-03-11T00:02:04+00:00,3.7334730625153,4,versionB_stim.csv,JOLVersion_Recall.csv,"JOL Recall",JOL2,WEDDING,FINGER,Study1,M,72,78,JOL,User,-,"How likely are you to correctly recall the second item in the pair?|Type your response on a scale from 0-100 and then press Enter.",Study/JOL,"Study Phase2",3608,,,2122,2459,,,,70,1
MariaSmith,4tlyr1pu2v,"Mediated JOLs",1,144,2023-03-11T00:02:08+00:00,3.6372549533844,4,versionB_stim.csv,JOLVersion_Recall.csv,"JOL Recall",JOL2,SWAN,BIRD,Study1,F,81,90,JOL,User,-,"How likely are you to correctly recall the second item in the pair?|Type your response on a scale from 0-100 and then press Enter.",Study/JOL,"Study Phase2",3513,,,2283,2530,,,,80,1
MariaSmith,4tlyr1pu2v,"Mediated JOLs",1,145,2023-03-11T00:02:13+00:00,5.4118299484253,4,versionB_stim.csv,JOLVersion_Recall.csv,"JOL Recall",JOL2,SHELL,SHAKE,Study1,U,98,66,JOL,User,-,"How likely are you to correctly recall the second item in the pair?|Type your response on a scale from 0-100 and then press Enter.",Study/JOL,"Study Phase2",5285,,,3861,4343,,,,40,1
MariaSmith,4tlyr1pu2v,"Mediated JOLs",1,146,2023-03-11T00:02:17+00:00,3.1400980949402,4,versionB_stim.csv,JOLVersion_Recall.csv,"JOL Recall",JOL2,MULE,DONKEY,Study1,F,85,104,JOL,User,-,"How likely are you to correctly recall the second item in the pair?|Type your response on a scale from 0-100 and then press Enter.",Study/JOL,"Study Phase2",3016,,,1867,2100,,,,90,1
MariaSmith,4tlyr1pu2v,"Mediated JOLs",1,147,2023-03-11T00:02:20+00:00,3.1719799041748,4,versionB_stim.csv,JOLVersion_Recall.csv,"JOL Recall",JOL2,HORSE,WHEEL,Study1,M,69,85,JOL,User,-,"How likely are you to correctly recall the second item in the pair?|Type your response on a scale from 0-100 and then press Enter.",Study/JOL,"Study Phase2",3039,,,1699,2028,,,,70,1
MariaSmith,4tlyr1pu2v,"Mediated JOLs",1,148,2023-03-11T00:02:23+00:00,2.836718082428,4,versionB_stim.csv,JOLVersion_Recall.csv,"JOL Recall",JOL2,CRY,BOTTLE,Study1,M,71,84,JOL,User,-,"How likely are you to correctly recall the second item in the pair?|Type your response on a scale from 0-100 and then press Enter.",Study/JOL,"Study Phase2",2708,,,1475,1733,,,,80,1
MariaSmith,4tlyr1pu2v,"Mediated JOLs",1,149,2023-03-11T00:02:25+00:00,2.7281739711761,4,versionB_stim.csv,JOLVersion_Recall.csv,"JOL Recall",JOL2,LITTER,TRASH,Study1,F,76,64,JOL,User,-,"How likely are you to correctly recall the second item in the pair?|Type your response on a scale from 0-100 and then press Enter.",Study/JOL,"Study Phase2",2608,,,1479,1666,,,,90,1
MariaSmith,4tlyr1pu2v,"Mediated JOLs",1,150,2023-03-11T00:02:28+00:00,2.818855047226,4,versionB_stim.csv,JOLVersion_Recall.csv,"JOL Recall",JOL2,ORCHID,FLOWER,Study1,F,89,67,JOL,User,-,"How likely are you to correctly recall the second item in the pair?|Type your response on a scale from 0-100 and then press Enter.",Study/JOL,"Study Phase2",2695,,,1401,1578,,,,90,1
MariaSmith,4tlyr1pu2v,"Mediated JOLs",1,151,2023-03-11T00:02:32+00:00,3.4240069389343,4,versionB_stim.csv,JOLVersion_Recall.csv,"JOL Recall",JOL2,SIGN,TICK,Study1,U,102,106,JOL,User,-,"How likely are you to correctly recall the second item in the pair?|Type your response on a scale from 0-100 and then press Enter.",Study/JOL,"Study Phase2",3295,,,1802,2311,,,,30,1
MariaSmith,4tlyr1pu2v,"Mediated JOLs",1,152,2023-03-11T00:02:35+00:00,3.1579270362854,4,versionB_stim.csv,JOLVersion_Recall.csv,"JOL Recall",JOL2,WORD,SENTENCE,Study1,F,82,72,JOL,User,-,"How likely are you to correctly recall the second item in the pair?|Type your response on a scale from 0-100 and then press Enter.",Study/JOL,"Study Phase2",3030,,,1726,2052,,,,80,1
MariaSmith,4tlyr1pu2v,"Mediated JOLs",1,153,2023-03-11T00:02:37+00:00,2.7109179496765,4,versionB_stim.csv,JOLVersion_Recall.csv,"JOL Recall",JOL2,HYGIENE,CLEAN,Study1,F,83,94,JOL,User,-,"How likely are you to correctly recall the second item in the pair?|Type your response on a scale from 0-100 and then press Enter.",Study/JOL,"Study Phase2",2589,,,1401,1648,,,,80,1
MariaSmith,4tlyr1pu2v,"Mediated JOLs",1,154,2023-03-11T00:02:41+00:00,3.1577270030975,4,versionB_stim.csv,JOLVersion_Recall.csv,"JOL Recall",JOL2,SIP,DRINK,Study1,F,87,65,JOL,User,-,"How likely are you to correctly recall the second item in the pair?|Type your response on a scale from 0-100 and then press Enter.",Study/JOL,"Study Phase2",3037,,,1545,1984,,,,80,1
MariaSmith,4tlyr1pu2v,"Mediated JOLs",1,155,2023-03-11T00:02:44+00:00,3.5275800228119,4,versionB_stim.csv,JOLVersion_Recall.csv,"JOL Recall",JOL2,WAR,QUIET,Study1,M,63,75,JOL,User,-,"How likely are you to correctly recall the second item in the pair?|Type your response on a scale from 0-100 and then press Enter.",Study/JOL,"Study Phase2",3407,,,1917,2501,,,,20,1
MariaSmith,4tlyr1pu2v,"Mediated JOLs",1,156,2023-03-11T00:02:50+00:00,5.7749350070953,4,versionB_stim.csv,JOLVersion_Recall.csv,"JOL Recall",JOL2,ROUGH,SILK,Study1,M,65,69,JOL,User,-,"How likely are you to correctly recall the second item in the pair?|Type your response on a scale from 0-100 and then press Enter.",Study/JOL,"Study Phase2",5651,,,4337,4589,,,,80,1
MariaSmith,4tlyr1pu2v,"Mediated JOLs",1,157,2023-03-11T00:02:54+00:00,3.7631640434265,4,versionB_stim.csv,JOLVersion_Recall.csv,"JOL Recall",JOL2,MIRROR,MAROON,Study1,U,91,103,JOL,User,-,"How likely are you to correctly recall the second item in the pair?|Type your response on a scale from 0-100 and then press Enter.",Study/JOL,"Study Phase2",3646,,,2039,2780,,,,30,1
MariaSmith,4tlyr1pu2v,"Mediated JOLs",1,158,2023-03-11T00:02:59+00:00,4.9906198978424,4,versionB_stim.csv,JOLVersion_Recall.csv,"JOL Recall",JOL2,HARD,COTTON,Study1,M,75,77,JOL,User,-,"How likely are you to correctly recall the second item in the pair?|Type your response on a scale from 0-100 and then press Enter.",Study/JOL,"Study Phase2",4869,,,2986,3690,,,,20,1
MariaSmith,4tlyr1pu2v,"Mediated JOLs",1,159,2023-03-11T00:03:03+00:00,4.225396156311,4,versionB_stim.csv,JOLVersion_Recall.csv,"JOL Recall",JOL2,MULE,DONKEY,Study1,F,79,91,JOL,User,-,"How likely are you to correctly recall the second item in the pair?|Type your response on a scale from 0-100 and then press Enter.",Study/JOL,"Study Phase2",4087,,,2802,3001,,,,90,1
MariaSmith,4tlyr1pu2v,"Mediated JOLs",1,160,2023-03-11T00:03:07+00:00,4.197322845459,4,versionB_stim.csv,JOLVersion_Recall.csv,"JOL Recall",JOL2,CEILING,CARPET,Study1,M,70,62,JOL,User,-,"How likely are you to correctly recall the second item in the pair?|Type your response on a scale from 0-100 and then press Enter.",Study/JOL,"Study Phase2",4071,,,2770,3098,,,,70,1
MariaSmith,4tlyr1pu2v,"Mediated JOLs",1,161,2023-03-11T00:03:11+00:00,3.8072850704193,4,versionB_stim.csv,JOLVersion_Recall.csv,"JOL Recall",JOL2,BEACH,BOX,Study1,M,62,80,JOL,User,-,"How likely are you to correctly recall the second item in the pair?|Type your response on a scale from 0-100 and then press Enter.",Study/JOL,"Study Phase2",3683,,,1877,2515,,,,20,1
MariaSmith,4tlyr1pu2v,"Mediated JOLs",1,162,2023-03-11T00:03:15+00:00,4.2153060436249,4,versionB_stim.csv,JOLVersion_Recall.csv,"JOL Recall",JOL2,CARROT,POTATO,BUFFER4,Buffer,51,54,JOL,User,-,"How likely are you to correctly recall the second item in the pair?|Type your response on a scale from 0-100 and then press Enter.",Study/JOL,BUFFER2,4090,,,2407,2941,,,,40,1
MariaSmith,4tlyr1pu2v,"Mediated JOLs",1,163,2023-03-11T00:03:18+00:00,2.6477618217468,4,versionB_stim.csv,JOLVersion_Recall.csv,"JOL Recall",JOL2,ICE,FROZEN,BUFFER4,Buffer,54,56,JOL,User,-,"How likely are you to correctly recall the second item in the pair?|Type your response on a scale from 0-100 and then press Enter.",Study/JOL,BUFFER2,2523,,,1381,1571,,,,90,1
MariaSmith,4tlyr1pu2v,"Mediated JOLs",1,164,2023-03-11T00:03:22+00:00,4.0250351428986,4,versionB_stim.csv,JOLVersion_Recall.csv,"JOL Recall",JOL2,SHERRIF,POLICE,BUFFER2,Buffer,107,111,JOL,User,-,"How likely are you to correctly recall the second item in the pair?|Type your response on a scale from 0-100 and then press Enter.",Study/JOL,BUFFER2,3903,,,2058,2675,,,,100,1
MariaSmith,4tlyr1pu2v,"Mediated JOLs",1,165,2023-03-11T00:03:33+00:00,10.796596050262,4,versionB_stim.csv,JOLVersion_Recall.csv,"JOL Recall",JOL2,NOODLE,STRING,BUFFER4,Buffer,52,52,JOL,User,-,"How likely are you to correctly recall the second item in the pair?|Type your response on a scale from 0-100 and then press Enter.",Study/JOL,BUFFER2,10668,,,9372,9598,,,,80,1
MariaSmith,4tlyr1pu2v,"Mediated JOLs",1,166,2023-03-11T00:03:37+00:00,4.2926988601685,4,versionB_stim.csv,JOLVersion_Recall.csv,"JOL Recall",JOL2,GEESE,GOOSE,BUFFER2,Buffer,106,108,JOL,User,-,"How likely are you to correctly recall the second item in the pair?|Type your response on a scale from 0-100 and then press Enter.",Study/JOL,BUFFER2,4162,,,2548,3284,,,,100,1
MariaSmith,4tlyr1pu2v,"Mediated JOLs",1,167,2023-03-11T00:03:39+00:00,1.8860709667206,4,versionB_stim.csv,JOLVersion_Recall.csv,"JOL Recall",JOL2,,,,,,0,Instruct,User,-,"You have completed this section. Please press Enter.",Filler_Instruction,Instruct2,1759,,,-1,-1,,,,,1
MariaSmith,4tlyr1pu2v,"Mediated JOLs",1,168,2023-03-11T00:05:39+00:00,120.16122317314,4,versionB_stim.csv,JOLVersion_Recall.csv,"JOL Recall",JOL2,,,,,,0,FreeRecall,120,120,"Please list the 50 US states in alphabetical order. The task will automatically advance to the next screen after two minutes.",,Filler1,120001,"Alabama Alaska Arizona Arkansas California Colorado Connecticut Deleware Florida Georgia Hawaii Idaho Illinois Indiana Iowa Kans",0,2766,119951,0,0,,,1
MariaSmith,4tlyr1pu2v,"Mediated JOLs",1,169,2023-03-11T00:05:51+00:00,12.384202003479,4,versionB_stim.csv,JOLVersion_Recall.csv,"JOL Recall",JOL2,,,,,,0,Instruct,-,10,"You will now be presented with the first word from each of the previously studied item pairs. Please type the missing word. If you do not know the word, you may guess or press Enter to skip forward to the next pair.",,Instruct3,11230,,,-1,-1,,,,,1
MariaSmith,4tlyr1pu2v,"Mediated JOLs",1,170,2023-03-11T00:05:58+00:00,7.1629648208618,4,versionB_stim.csv,JOLVersion_Recall.csv,"JOL Recall",JOL2,CEILING,CARPET,Study1,M,70,62,Test,User,-,,Recall,Recall2,7018,Carpet,100,2188,5714,1,1,,,1
MariaSmith,4tlyr1pu2v,"Mediated JOLs",1,171,2023-03-11T00:06:10+00:00,11.065350055695,4,versionB_stim.csv,JOLVersion_Recall.csv,"JOL Recall",JOL2,ROOT,PLANT,Study1,F,80,68,Test,User,-,,Recall,Recall2,10922,Plant,100,8186,9584,1,1,,,1
MariaSmith,4tlyr1pu2v,"Mediated JOLs",1,172,2023-03-11T00:06:14+00:00,4.0286180973053,4,versionB_stim.csv,JOLVersion_Recall.csv,"JOL Recall",JOL2,SOON,BELT,Study1,U,101,88,Test,User,-,,Recall,Recall2,3898,,0,-1,-1,0,0,,,1
MariaSmith,4tlyr1pu2v,"Mediated JOLs",1,173,2023-03-11T00:06:18+00:00,4.5436329841614,4,versionB_stim.csv,JOLVersion_Recall.csv,"JOL Recall",JOL2,AFFECTION,LOVE,Study1,F,86,93,Test,User,-,,Recall,Recall2,4420,Love,100,1668,2502,1,1,,,1
MariaSmith,4tlyr1pu2v,"Mediated JOLs",1,174,2023-03-11T00:06:25+00:00,7.3170218467712,4,versionB_stim.csv,JOLVersion_Recall.csv,"JOL Recall",JOL2,TREE,SYRUP,Study1,M,66,105,Test,User,-,,Recall,Recall2,7177,Green,20,2753,5836,0,0,,,1
MariaSmith,4tlyr1pu2v,"Mediated JOLs",1,175,2023-03-11T00:06:30+00:00,4.6683552265167,4,versionB_stim.csv,JOLVersion_Recall.csv,"JOL Recall",JOL2,MIRROR,MAROON,Study1,U,91,103,Test,User,-,,Recall,Recall2,4541,Maroon,100,1573,3214,1,1,,,1
MariaSmith,4tlyr1pu2v,"Mediated JOLs",1,176,2023-03-11T00:06:36+00:00,6.1444549560547,4,versionB_stim.csv,JOLVersion_Recall.csv,"JOL Recall",JOL2,WORD,SENTENCE,Study1,F,82,72,Test,User,-,,Recall,Recall2,6018,Sentence,100,2532,4725,1,1,,,1
MariaSmith,4tlyr1pu2v,"Mediated JOLs",1,177,2023-03-11T00:06:41+00:00,4.5262699127197,4,versionB_stim.csv,JOLVersion_Recall.csv,"JOL Recall",JOL2,GIVE,STEAK,Study1,U,93,81,Test,User,-,,Recall,Recall2,4393,,0,-1,-1,0,0,,,1
MariaSmith,4tlyr1pu2v,"Mediated JOLs",1,178,2023-03-11T00:06:45+00:00,4.6731200218201,4,versionB_stim.csv,JOLVersion_Recall.csv,"JOL Recall",JOL2,TEMPERATURE,MORNING,Study1,U,103,82,Test,User,-,,Recall,Recall2,4441,Morning,100,1705,3405,1,1,,,1
MariaSmith,4tlyr1pu2v,"Mediated JOLs",1,179,2023-03-11T00:06:55+00:00,9.8771340847015,4,versionB_stim.csv,JOLVersion_Recall.csv,"JOL Recall",JOL2,BAT,BOUNCE,Study1,M,67,74,Test,User,-,,Recall,Recall2,9746,Bounce,100,6556,8328,1,1,,,1
MariaSmith,4tlyr1pu2v,"Mediated JOLs",1,180,2023-03-11T00:06:59+00:00,3.492241859436,4,versionB_stim.csv,JOLVersion_Recall.csv,"JOL Recall",JOL2,KEYS,ROD,Study1,U,100,89,Test,User,-,,Recall,Recall2,3365,,0,-1,-1,0,0,,,1
MariaSmith,4tlyr1pu2v,"Mediated JOLs",1,181,2023-03-11T00:07:04+00:00,4.8304541110992,4,versionB_stim.csv,JOLVersion_Recall.csv,"JOL Recall",JOL2,LITTER,TRASH,Study1,F,76,64,Test,User,-,,Recall,Recall2,4702,Trash,100,1961,3344,1,1,,,1
MariaSmith,4tlyr1pu2v,"Mediated JOLs",1,182,2023-03-11T00:07:10+00:00,6.0544190406799,4,versionB_stim.csv,JOLVersion_Recall.csv,"JOL Recall",JOL2,CRACKLE,ELECTION,Study1,U,94,83,Test,User,-,,Recall,Recall2,5922,,0,-1,-1,0,0,,,1
MariaSmith,4tlyr1pu2v,"Mediated JOLs",1,183,2023-03-11T00:07:19+00:00,9.7459869384766,4,versionB_stim.csv,JOLVersion_Recall.csv,"JOL Recall",JOL2,MULE,DONKEY,Study1,F,79,91,Test,User,-,,Recall,Recall2,9620,Donkey,100,2254,7972,1,1,,,1
MariaSmith,4tlyr1pu2v,"Mediated JOLs",1,184,2023-03-11T00:07:24+00:00,4.5980389118195,4,versionB_stim.csv,JOLVersion_Recall.csv,"JOL Recall",JOL2,TUNA,FISH,Study1,F,90,71,Test,User,-,,Recall,Recall2,4471,Fish,100,2008,3252,1,1,,,1
MariaSmith,4tlyr1pu2v,"Mediated JOLs",1,185,2023-03-11T00:07:27+00:00,2.6569430828094,4,versionB_stim.csv,JOLVersion_Recall.csv,"JOL Recall",JOL2,STRETCH,CLOTH,Study1,U,92,97,Test,User,-,,Recall,Recall2,2529,,0,-1,-1,0,0,,,1
MariaSmith,4tlyr1pu2v,"Mediated JOLs",1,186,2023-03-11T00:07:33+00:00,6.1475019454956,4,versionB_stim.csv,JOLVersion_Recall.csv,"JOL Recall",JOL2,WEDDING,FINGER,Study1,M,72,78,Test,User,-,,Recall,Recall2,6022,Finger,100,2963,4678,1,1,,,1
MariaSmith,4tlyr1pu2v,"Mediated JOLs",1,187,2023-03-11T00:07:37+00:00,4.1467831134796,4,versionB_stim.csv,JOLVersion_Recall.csv,"JOL Recall",JOL2,SIGN,TICK,Study1,U,102,106,Test,User,-,,Recall,Recall2,4022,,0,-1,-1,0,0,,,1
MariaSmith,4tlyr1pu2v,"Mediated JOLs",1,188,2023-03-11T00:07:42+00:00,4.7989208698273,4,versionB_stim.csv,JOLVersion_Recall.csv,"JOL Recall",JOL2,MULE,DONKEY,Study1,F,85,104,Test,User,-,,Recall,Recall2,4673,Donkey,100,1373,3292,1,1,,,1
MariaSmith,4tlyr1pu2v,"Mediated JOLs",1,189,2023-03-11T00:07:45+00:00,2.9233720302582,4,versionB_stim.csv,JOLVersion_Recall.csv,"JOL Recall",JOL2,LISTEN,FICTION,Study1,U,99,92,Test,User,-,,Recall,Recall2,2795,,0,-1,-1,0,0,,,1
MariaSmith,4tlyr1pu2v,"Mediated JOLs",1,190,2023-03-11T00:07:49+00:00,3.8677968978882,4,versionB_stim.csv,JOLVersion_Recall.csv,"JOL Recall",JOL2,VEHICLE,CHARM,Study1,U,95,87,Test,User,-,,Recall,Recall2,3739,,0,-1,-1,0,0,,,1
MariaSmith,4tlyr1pu2v,"Mediated JOLs",1,191,2023-03-11T00:07:53+00:00,4.2458300590515,4,versionB_stim.csv,JOLVersion_Recall.csv,"JOL Recall",JOL2,NAP,SLEEP,Study1,F,84,95,Test,User,-,,Recall,Recall2,4122,Sleep,100,1380,2847,1,1,,,1
MariaSmith,4tlyr1pu2v,"Mediated JOLs",1,192,2023-03-11T00:07:57+00:00,4.394593000412,4,versionB_stim.csv,JOLVersion_Recall.csv,"JOL Recall",JOL2,ORCHID,FLOWER,Study1,F,89,67,Test,User,-,,Recall,Recall2,4272,Flower,100,1611,3103,1,1,,,1
MariaSmith,4tlyr1pu2v,"Mediated JOLs",1,193,2023-03-11T00:08:08+00:00,10.705661058426,4,versionB_stim.csv,JOLVersion_Recall.csv,"JOL Recall",JOL2,WAR,QUIET,Study1,M,63,75,Test,User,-,,Recall,Recall2,10575,Quiet,100,6277,9498,1,1,,,1
MariaSmith,4tlyr1pu2v,"Mediated JOLs",1,194,2023-03-11T00:08:15+00:00,6.9424660205841,4,versionB_stim.csv,JOLVersion_Recall.csv,"JOL Recall",JOL2,WAGE,MONEY,Study1,F,77,86,Test,User,-,,Recall,Recall2,6814,Money,100,3971,5568,1,1,,,1
MariaSmith,4tlyr1pu2v,"Mediated JOLs",1,195,2023-03-11T00:08:19+00:00,3.9827868938446,4,versionB_stim.csv,JOLVersion_Recall.csv,"JOL Recall",JOL2,SIP,DRINK,Study1,F,87,65,Test,User,-,,Recall,Recall2,3860,Drink,100,1466,2824,1,1,,,1
MariaSmith,4tlyr1pu2v,"Mediated JOLs",1,196,2023-03-11T00:08:23+00:00,4.5370140075684,4,versionB_stim.csv,JOLVersion_Recall.csv,"JOL Recall",JOL2,SWAN,BIRD,Study1,F,81,90,Test,User,-,,Recall,Recall2,4406,Bird,100,2329,3301,1,1,,,1
MariaSmith,4tlyr1pu2v,"Mediated JOLs",1,197,2023-03-11T00:08:30+00:00,6.6815211772919,4,versionB_stim.csv,JOLVersion_Recall.csv,"JOL Recall",JOL2,HARD,COTTON,Study1,M,75,77,Test,User,-,,Recall,Recall2,6503,,0,-1,-1,0,0,,,1
MariaSmith,4tlyr1pu2v,"Mediated JOLs",1,198,2023-03-11T00:08:33+00:00,2.7879920005798,4,versionB_stim.csv,JOLVersion_Recall.csv,"JOL Recall",JOL2,MEAT,KEYS,Study1,U,96,100,Test,User,-,,Recall,Recall2,2661,,0,-1,-1,0,0,,,1
MariaSmith,4tlyr1pu2v,"Mediated JOLs",1,199,2023-03-11T00:08:37+00:00,4.6340038776398,4,versionB_stim.csv,JOLVersion_Recall.csv,"JOL Recall",JOL2,CIRCLE,DANCE,Study1,M,68,73,Test,User,-,,Recall,Recall2,4503,Dance,100,2147,3391,1,1,,,1
MariaSmith,4tlyr1pu2v,"Mediated JOLs",1,200,2023-03-11T00:08:42+00:00,4.2427539825439,4,versionB_stim.csv,JOLVersion_Recall.csv,"JOL Recall",JOL2,HYGIENE,CLEAN,Study1,F,83,94,Test,User,-,,Recall,Recall2,4132,Clean,100,1487,3186,1,1,,,1
MariaSmith,4tlyr1pu2v,"Mediated JOLs",1,201,2023-03-11T00:08:47+00:00,4.8894059658051,4,versionB_stim.csv,JOLVersion_Recall.csv,"JOL Recall",JOL2,HORSE,WHEEL,Study1,M,69,85,Test,User,-,,Recall,Recall2,4764,Wheel,100,1901,3485,1,1,,,1
MariaSmith,4tlyr1pu2v,"Mediated JOLs",1,202,2023-03-11T00:09:02+00:00,15.663484096527,4,versionB_stim.csv,JOLVersion_Recall.csv,"JOL Recall",JOL2,SCALP,HEAD,Study1,F,78,63,Test,User,-,,Recall,Recall2,15542,"Head ",100,12750,14306,1,1,,,1
MariaSmith,4tlyr1pu2v,"Mediated JOLs",1,203,2023-03-11T00:09:11+00:00,8.6804599761963,4,versionB_stim.csv,JOLVersion_Recall.csv,"JOL Recall",JOL2,MAZE,PHONE,Study1,U,97,98,Test,User,-,,Recall,Recall2,8540,Phone,100,4357,6669,1,1,,,1
MariaSmith,4tlyr1pu2v,"Mediated JOLs",1,204,2023-03-11T00:09:15+00:00,4.5386209487915,4,versionB_stim.csv,JOLVersion_Recall.csv,"JOL Recall",JOL2,TOOTH,HAIR,Study1,M,74,99,Test,User,-,,Recall,Recall2,4395,,0,-1,-1,0,0,,,1
MariaSmith,4tlyr1pu2v,"Mediated JOLs",1,205,2023-03-11T00:09:17+00:00,1.9835290908813,4,versionB_stim.csv,JOLVersion_Recall.csv,"JOL Recall",JOL2,SHELL,SHAKE,Study1,U,98,66,Test,User,-,,Recall,Recall2,1841,,0,-1,-1,0,0,,,1
MariaSmith,4tlyr1pu2v,"Mediated JOLs",1,206,2023-03-11T00:09:36+00:00,19.003738880157,4,versionB_stim.csv,JOLVersion_Recall.csv,"JOL Recall",JOL2,LION,STRIPES,Study1,M,61,79,Test,User,-,,Recall,Recall2,18850,Stripes,100,16255,17732,1,1,,,1
MariaSmith,4tlyr1pu2v,"Mediated JOLs",1,207,2023-03-11T00:09:40+00:00,3.8995959758759,4,versionB_stim.csv,JOLVersion_Recall.csv,"JOL Recall",JOL2,ROUGH,SILK,Study1,M,65,69,Test,User,-,,Recall,Recall2,3745,Silk,100,1927,2691,1,1,,,1
MariaSmith,4tlyr1pu2v,"Mediated JOLs",1,208,2023-03-11T00:09:46+00:00,5.8259642124176,4,versionB_stim.csv,JOLVersion_Recall.csv,"JOL Recall",JOL2,BEACH,BOX,Study1,M,62,80,Test,User,-,,Recall,Recall2,5694,,0,-1,-1,0,0,,,1
MariaSmith,4tlyr1pu2v,"Mediated JOLs",1,209,2023-03-11T00:09:50+00:00,3.5857038497925,4,versionB_stim.csv,JOLVersion_Recall.csv,"JOL Recall",JOL2,CRY,BOTTLE,Study1,M,71,84,Test,User,-,,Recall,Recall2,3453,Bottle,100,1201,2539,1,1,,,1
MariaSmith,4tlyr1pu2v,"Mediated JOLs",1,210,2023-03-11T00:09:59+00:00,8.9248371124268,4,versionB_stim.csv,JOLVersion_Recall.csv,"JOL Recall",JOL2,BIRTHDAY,PIE,Study1,M,64,101,Test,User,-,,Recall,Recall2,8789,Pie,100,1353,1804,1,1,,,1
MariaSmith,4tlyr1pu2v,"Mediated JOLs",1,211,2023-03-11T00:10:01+00:00,2.2592558860779,4,versionB_stim.csv,JOLVersion_Recall.csv,"JOL Recall",JOL2,FUZZY,BANG,Study1,U,105,102,Test,User,-,,Recall,Recall2,2136,,0,-1,-1,0,0,,,1
MariaSmith,4tlyr1pu2v,"Mediated JOLs",1,212,2023-03-11T00:10:04+00:00,3.3352339267731,4,versionB_stim.csv,JOLVersion_Recall.csv,"JOL Recall",JOL2,CAKE,HAND,Study1,U,104,76,Test,User,-,,Recall,Recall2,3196,,0,-1,-1,0,0,,,1
MariaSmith,4tlyr1pu2v,"Mediated JOLs",1,213,2023-03-11T00:10:20+00:00,15.780420064926,4,versionB_stim.csv,JOLVersion_Recall.csv,"JOL Recall",JOL2,DAY,DARK,Study1,M,73,96,Test,User,-,,Recall,Recall2,15641,Dark,100,1746,14218,1,1,,,1
MariaSmith,4tlyr1pu2v,"Mediated JOLs",1,214,2023-03-11T00:10:24+00:00,3.9294090270996,4,versionB_stim.csv,JOLVersion_Recall.csv,"JOL Recall",JOL2,CREDIT,CARD,Study1,F,88,70,Test,User,-,,Recall,Recall2,3790,Card,100,1451,2441,1,1,,,1
MariaSmith,4tlyr1pu2v,"Mediated JOLs",1,215,2023-03-11T00:10:26+00:00,1.6411089897156,4,versionB_stim.csv,JOLVersion_Recall.csv,"JOL Recall",JOL2,,,,,,0,Instruct,User,-,"You have completed this section. Please press Enter.",,Instruct7,1508,,,-1,-1,,,,,1
MariaSmith,4tlyr1pu2v,"Mediated JOLs",1,216,2023-03-11T00:10:28+00:00,2.7038969993591,4,versionB_stim.csv,JOLVersion_Recall.csv,"JOL Recall",JOL2,,,,,,0,Instruct,User,-,"The following screen will ask you a few questions abour your experience today. You must complete these questions to receive credit.",,Instruct8,2569,,,-1,-1,,,,,1
