Username,ID,ExperimentName,Session,Trial,Date,TimeDif,"Condition Number","Stimuli File","Order File","Condition Description","Condition Notes",Stimuli*Cue,Stimuli*Answer,Stimuli*Shuffle,"Stimuli*Stimuli Notes",Stimuli*Value,Procedure*Item,"Procedure*Trial Type","Procedure*Max Time","Procedure*Min Time",Procedure*Text,"Procedure*Procedure Notes",Procedure*Shuffle,Procedure*,Response*RT,Response*Response,Response*Accuracy,Response*RTfirst,Response*RTlast,Response*strictAcc,Response*lenientAcc,Response*focus,Response*JOL,Response*Focus
BrandyChilson,gh0z4uwpcu,"Mediated JOLs",1,1,2023-04-02T04:55:43+00:00,5.9691619873047,6,versionC_stim.csv,JOLVersion_Recog.csv,"JOL Recog",JOL3,,,,,,0,Instruct,-,5,"In this section, you will be presented with a series of word pairs. Please study each word pair! Your memory will be tested!",Initial_Instruct,Instruct1,,5738,,,-1,-1,,,,,1
BrandyChilson,gh0z4uwpcu,"Mediated JOLs",1,2,2023-04-02T04:55:55+00:00,12.237046003342,6,versionC_stim.csv,JOLVersion_Recog.csv,"JOL Recog",JOL3,,,,,,0,Instruct,-,10,"As you study, you will be asked to rate your ability to remember the second item in the pair on a later test. You will make these ratings using a 0 to 100 Scale.",,Instruct13,,11553,,,-1,-1,,,,,1
BrandyChilson,gh0z4uwpcu,"Mediated JOLs",1,3,2023-04-02T04:56:08+00:00,12.642136096954,6,versionC_stim.csv,JOLVersion_Recog.csv,"JOL Recog",JOL3,,,,,,0,Instruct,-,10,"For example, if you are given the pair CAT - DOG, a rating of 0 indicates that you would not remember DOG at test, while a rating of 100 indicates full certainty that you would remember the word DOG at test.",,Instruct14,,12319,,,-1,-1,,,,,1
BrandyChilson,gh0z4uwpcu,"Mediated JOLs",1,4,2023-04-02T04:56:21+00:00,12.962919950485,6,versionC_stim.csv,JOLVersion_Recog.csv,"JOL Recog",JOL3,,,,,,0,Instruct,-,10,"When making your ratings, it is criticial that you use the full range of the scale. You will be disqualified for only giving ratings of 0 or 100! After making your rating, press Enter to advance to the next pair.",,Instruct15,,12640,,,-1,-1,,,,,1
BrandyChilson,gh0z4uwpcu,"Mediated JOLs",1,5,2023-04-02T04:56:24+00:00,3.2029409408569,6,versionC_stim.csv,JOLVersion_Recog.csv,"JOL Recog",JOL3,,,,,,0,Instruct,User,-,"You will now begin the study. Press Enter when you are ready to begin.",,Instruct16,,2996,,,-1,-1,,,,,1
BrandyChilson,gh0z4uwpcu,"Mediated JOLs",1,6,2023-04-02T04:56:43+00:00,18.940313100815,6,versionC_stim.csv,JOLVersion_Recog.csv,"JOL Recog",JOL3,SCARE,FRIGHT,BUFFER1,Buffer,4,5,JOL,User,-,"How likely are you to correctly recall the second item in the pair?|Type your response on a scale from 0-100 and then press Enter.",Study/JOL,BUFFER,,18604,,,16866,17243,,,,70,1
BrandyChilson,gh0z4uwpcu,"Mediated JOLs",1,7,2023-04-02T04:56:53+00:00,10.197609901428,6,versionC_stim.csv,JOLVersion_Recog.csv,"JOL Recog",JOL3,TREES,GREEN,BUFFER1,Buffer,1,3,JOL,User,-,"How likely are you to correctly recall the second item in the pair?|Type your response on a scale from 0-100 and then press Enter.",Study/JOL,BUFFER,,9870,,,8111,8523,,,,65,1
BrandyChilson,gh0z4uwpcu,"Mediated JOLs",1,8,2023-04-02T04:57:01+00:00,8.4959800243378,6,versionC_stim.csv,JOLVersion_Recog.csv,"JOL Recog",JOL3,SPACE,JAM,BUFFER1,Buffer,5,2,JOL,User,-,"How likely are you to correctly recall the second item in the pair?|Type your response on a scale from 0-100 and then press Enter.",Study/JOL,BUFFER,,8170,,,5498,6816,,,,95,1
BrandyChilson,gh0z4uwpcu,"Mediated JOLs",1,9,2023-04-02T04:57:11+00:00,10.071371078491,6,versionC_stim.csv,JOLVersion_Recog.csv,"JOL Recog",JOL3,PITCHER,CATCHER,BUFFER1,Buffer,2,4,JOL,User,-,"How likely are you to correctly recall the second item in the pair?|Type your response on a scale from 0-100 and then press Enter.",Study/JOL,BUFFER,,9742,,,8211,8511,,,,65,1
BrandyChilson,gh0z4uwpcu,"Mediated JOLs",1,10,2023-04-02T04:57:20+00:00,8.6474449634552,6,versionC_stim.csv,JOLVersion_Recog.csv,"JOL Recog",JOL3,PEANUT,BUTTER,BUFFER1,Buffer,3,6,JOL,User,-,"How likely are you to correctly recall the second item in the pair?|Type your response on a scale from 0-100 and then press Enter.",Study/JOL,BUFFER,,8253,,,6691,6950,,,,90,1
BrandyChilson,gh0z4uwpcu,"Mediated JOLs",1,11,2023-04-02T04:57:28+00:00,8.326290845871,6,versionC_stim.csv,JOLVersion_Recog.csv,"JOL Recog",JOL3,WAR,QUIET,Study1,M,8,46,JOL,User,-,"How likely are you to correctly recall the second item in the pair?|Type your response on a scale from 0-100 and then press Enter.",Study/JOL,"Study Phase",,7990,,,6029,6852,,,,60,1
BrandyChilson,gh0z4uwpcu,"Mediated JOLs",1,12,2023-04-02T04:57:39+00:00,10.115458011627,6,versionC_stim.csv,JOLVersion_Recog.csv,"JOL Recog",JOL3,DAY,DARK,Study1,M,18,49,JOL,User,-,"How likely are you to correctly recall the second item in the pair?|Type your response on a scale from 0-100 and then press Enter.",Study/JOL,"Study Phase",,9788,,,6407,8725,,,,55,1
BrandyChilson,gh0z4uwpcu,"Mediated JOLs",1,13,2023-04-02T04:57:46+00:00,7.2297439575195,6,versionC_stim.csv,JOLVersion_Recog.csv,"JOL Recog",JOL3,BEACH,BOX,Study1,M,7,45,JOL,User,-,"How likely are you to correctly recall the second item in the pair?|Type your response on a scale from 0-100 and then press Enter.",Study/JOL,"Study Phase",,6884,,,5302,5749,,,,80,1
BrandyChilson,gh0z4uwpcu,"Mediated JOLs",1,14,2023-04-02T04:57:53+00:00,6.82555103302,6,versionC_stim.csv,JOLVersion_Recog.csv,"JOL Recog",JOL3,KEYS,ROD,Study1,U,45,47,JOL,User,-,"How likely are you to correctly recall the second item in the pair?|Type your response on a scale from 0-100 and then press Enter.",Study/JOL,"Study Phase",,6499,,,4473,5219,,,,20,1
BrandyChilson,gh0z4uwpcu,"Mediated JOLs",1,15,2023-04-02T04:58:02+00:00,9.3693690299988,6,versionC_stim.csv,JOLVersion_Recog.csv,"JOL Recog",JOL3,MULE,DONKEY,Study1,F,30,51,JOL,User,-,"How likely are you to correctly recall the second item in the pair?|Type your response on a scale from 0-100 and then press Enter.",Study/JOL,"Study Phase",,9071,,,6573,7216,,,,96,1
BrandyChilson,gh0z4uwpcu,"Mediated JOLs",1,16,2023-04-02T04:58:09+00:00,7.0798630714417,6,versionC_stim.csv,JOLVersion_Recog.csv,"JOL Recog",JOL3,CEILING,CARPET,Study1,M,15,11,JOL,User,-,"How likely are you to correctly recall the second item in the pair?|Type your response on a scale from 0-100 and then press Enter.",Study/JOL,"Study Phase",,6740,,,5186,5485,,,,90,1
BrandyChilson,gh0z4uwpcu,"Mediated JOLs",1,17,2023-04-02T04:58:15+00:00,6.4230220317841,6,versionC_stim.csv,JOLVersion_Recog.csv,"JOL Recog",JOL3,WAGE,MONEY,Study1,F,22,27,JOL,User,-,"How likely are you to correctly recall the second item in the pair?|Type your response on a scale from 0-100 and then press Enter.",Study/JOL,"Study Phase",,6090,,,4539,4836,,,,90,1
BrandyChilson,gh0z4uwpcu,"Mediated JOLs",1,18,2023-04-02T04:58:23+00:00,7.7276978492737,6,versionC_stim.csv,JOLVersion_Recog.csv,"JOL Recog",JOL3,CIRCLE,DANCE,Study1,M,13,19,JOL,User,-,"How likely are you to correctly recall the second item in the pair?|Type your response on a scale from 0-100 and then press Enter.",Study/JOL,"Study Phase",,7404,,,5893,6447,,,,85,1
BrandyChilson,gh0z4uwpcu,"Mediated JOLs",1,19,2023-04-02T04:58:31+00:00,7.522479057312,6,versionC_stim.csv,JOLVersion_Recog.csv,"JOL Recog",JOL3,ROOT,PLANT,Study1,F,25,42,JOL,User,-,"How likely are you to correctly recall the second item in the pair?|Type your response on a scale from 0-100 and then press Enter.",Study/JOL,"Study Phase",,7187,,,5285,6076,,,,64,1
BrandyChilson,gh0z4uwpcu,"Mediated JOLs",1,20,2023-04-02T04:58:39+00:00,8.4348599910736,6,versionC_stim.csv,JOLVersion_Recog.csv,"JOL Recog",JOL3,SCALP,HEAD,Study1,F,23,48,JOL,User,-,"How likely are you to correctly recall the second item in the pair?|Type your response on a scale from 0-100 and then press Enter.",Study/JOL,"Study Phase",,8115,,,4199,7037,,,,94,1
BrandyChilson,gh0z4uwpcu,"Mediated JOLs",1,21,2023-04-02T04:58:46+00:00,7.1908020973206,6,versionC_stim.csv,JOLVersion_Recog.csv,"JOL Recog",JOL3,SIGN,TICK,Study1,U,47,16,JOL,User,-,"How likely are you to correctly recall the second item in the pair?|Type your response on a scale from 0-100 and then press Enter.",Study/JOL,"Study Phase",,6869,,,5550,5930,,,,85,1
BrandyChilson,gh0z4uwpcu,"Mediated JOLs",1,22,2023-04-02T04:58:54+00:00,8.0279269218445,6,versionC_stim.csv,JOLVersion_Recog.csv,"JOL Recog",JOL3,HORSE,WHEEL,Study1,M,14,24,JOL,User,-,"How likely are you to correctly recall the second item in the pair?|Type your response on a scale from 0-100 and then press Enter.",Study/JOL,"Study Phase",,7687,,,5344,6524,,,,75,1
BrandyChilson,gh0z4uwpcu,"Mediated JOLs",1,23,2023-04-02T04:59:05+00:00,10.780049085617,6,versionC_stim.csv,JOLVersion_Recog.csv,"JOL Recog",JOL3,ROUGH,SILK,Study1,M,10,32,JOL,User,-,"How likely are you to correctly recall the second item in the pair?|Type your response on a scale from 0-100 and then press Enter.",Study/JOL,"Study Phase",,10367,,,8533,9329,,,,78,1
BrandyChilson,gh0z4uwpcu,"Mediated JOLs",1,24,2023-04-02T04:59:13+00:00,7.5239589214325,6,versionC_stim.csv,JOLVersion_Recog.csv,"JOL Recog",JOL3,TUNA,FISH,Study1,F,35,28,JOL,User,-,"How likely are you to correctly recall the second item in the pair?|Type your response on a scale from 0-100 and then press Enter.",Study/JOL,"Study Phase",,7195,,,4943,6235,,,,97,1
BrandyChilson,gh0z4uwpcu,"Mediated JOLs",1,25,2023-04-02T04:59:22+00:00,9.0777060985565,6,versionC_stim.csv,JOLVersion_Recog.csv,"JOL Recog",JOL3,MULE,DONKEY,Study1,F,24,43,JOL,User,-,"How likely are you to correctly recall the second item in the pair?|Type your response on a scale from 0-100 and then press Enter.",Study/JOL,"Study Phase",,8763,,,7165,7686,,,,85,1
BrandyChilson,gh0z4uwpcu,"Mediated JOLs",1,26,2023-04-02T04:59:29+00:00,7.5209789276123,6,versionC_stim.csv,JOLVersion_Recog.csv,"JOL Recog",JOL3,NAP,SLEEP,Study1,F,29,22,JOL,User,-,"How likely are you to correctly recall the second item in the pair?|Type your response on a scale from 0-100 and then press Enter.",Study/JOL,"Study Phase",,7190,,,5675,6178,,,,85,1
BrandyChilson,gh0z4uwpcu,"Mediated JOLs",1,27,2023-04-02T04:59:36+00:00,6.7714838981628,6,versionC_stim.csv,JOLVersion_Recog.csv,"JOL Recog",JOL3,WORD,SENTENCE,Study1,F,27,35,JOL,User,-,"How likely are you to correctly recall the second item in the pair?|Type your response on a scale from 0-100 and then press Enter.",Study/JOL,"Study Phase",,6442,,,5045,5399,,,,80,1
BrandyChilson,gh0z4uwpcu,"Mediated JOLs",1,28,2023-04-02T04:59:43+00:00,6.7159450054169,6,versionC_stim.csv,JOLVersion_Recog.csv,"JOL Recog",JOL3,HYGIENE,CLEAN,Study1,F,28,21,JOL,User,-,"How likely are you to correctly recall the second item in the pair?|Type your response on a scale from 0-100 and then press Enter.",Study/JOL,"Study Phase",,6407,,,4993,5335,,,,80,1
BrandyChilson,gh0z4uwpcu,"Mediated JOLs",1,29,2023-04-02T04:59:52+00:00,9.221969127655,6,versionC_stim.csv,JOLVersion_Recog.csv,"JOL Recog",JOL3,HARD,COTTON,Study1,M,20,17,JOL,User,-,"How likely are you to correctly recall the second item in the pair?|Type your response on a scale from 0-100 and then press Enter.",Study/JOL,"Study Phase",,7799,,,5661,6758,,,,76,1
BrandyChilson,gh0z4uwpcu,"Mediated JOLs",1,30,2023-04-02T04:59:59+00:00,7.1772749423981,6,versionC_stim.csv,JOLVersion_Recog.csv,"JOL Recog",JOL3,SWAN,BIRD,Study1,F,26,9,JOL,User,-,"How likely are you to correctly recall the second item in the pair?|Type your response on a scale from 0-100 and then press Enter.",Study/JOL,"Study Phase",,6847,,,5296,5681,,,,75,1
BrandyChilson,gh0z4uwpcu,"Mediated JOLs",1,31,2023-04-02T05:00:06+00:00,7.0911400318146,6,versionC_stim.csv,JOLVersion_Recog.csv,"JOL Recog",JOL3,MEAT,KEYS,Study1,U,41,26,JOL,User,-,"How likely are you to correctly recall the second item in the pair?|Type your response on a scale from 0-100 and then press Enter.",Study/JOL,"Study Phase",,5998,,,4696,4867,,,,45,1
BrandyChilson,gh0z4uwpcu,"Mediated JOLs",1,32,2023-04-02T05:00:14+00:00,7.4040789604187,6,versionC_stim.csv,JOLVersion_Recog.csv,"JOL Recog",JOL3,BIRTHDAY,PIE,Study1,M,9,7,JOL,User,-,"How likely are you to correctly recall the second item in the pair?|Type your response on a scale from 0-100 and then press Enter.",Study/JOL,"Study Phase",,5226,,,3863,4034,,,,55,1
BrandyChilson,gh0z4uwpcu,"Mediated JOLs",1,33,2023-04-02T05:00:20+00:00,6.6536560058594,6,versionC_stim.csv,JOLVersion_Recog.csv,"JOL Recog",JOL3,ORCHID,FLOWER,Study1,F,34,40,JOL,User,-,"How likely are you to correctly recall the second item in the pair?|Type your response on a scale from 0-100 and then press Enter.",Study/JOL,"Study Phase",,6042,,,4037,4259,,,,90,1
BrandyChilson,gh0z4uwpcu,"Mediated JOLs",1,34,2023-04-02T05:00:27+00:00,6.8805480003357,6,versionC_stim.csv,JOLVersion_Recog.csv,"JOL Recog",JOL3,GIVE,STEAK,Study1,U,38,33,JOL,User,-,"How likely are you to correctly recall the second item in the pair?|Type your response on a scale from 0-100 and then press Enter.",Study/JOL,"Study Phase",,6554,,,4471,5384,,,,72,1
BrandyChilson,gh0z4uwpcu,"Mediated JOLs",1,35,2023-04-02T05:00:34+00:00,6.8177869319916,6,versionC_stim.csv,JOLVersion_Recog.csv,"JOL Recog",JOL3,CRACKLE,ELECTION,Study1,U,39,30,JOL,User,-,"How likely are you to correctly recall the second item in the pair?|Type your response on a scale from 0-100 and then press Enter.",Study/JOL,"Study Phase",,6497,,,5053,5374,,,,10,1
BrandyChilson,gh0z4uwpcu,"Mediated JOLs",1,36,2023-04-02T05:00:41+00:00,6.6873440742493,6,versionC_stim.csv,JOLVersion_Recog.csv,"JOL Recog",JOL3,CREDIT,CARD,Study1,F,33,41,JOL,User,-,"How likely are you to correctly recall the second item in the pair?|Type your response on a scale from 0-100 and then press Enter.",Study/JOL,"Study Phase",,6372,,,5183,5421,,,,98,1
BrandyChilson,gh0z4uwpcu,"Mediated JOLs",1,37,2023-04-02T05:00:49+00:00,8.1610150337219,6,versionC_stim.csv,JOLVersion_Recog.csv,"JOL Recog",JOL3,VEHICLE,CHARM,Study1,U,40,8,JOL,User,-,"How likely are you to correctly recall the second item in the pair?|Type your response on a scale from 0-100 and then press Enter.",Study/JOL,"Study Phase",,7827,,,5859,6335,,,,45,1
BrandyChilson,gh0z4uwpcu,"Mediated JOLs",1,38,2023-04-02T05:00:57+00:00,7.9322259426117,6,versionC_stim.csv,JOLVersion_Recog.csv,"JOL Recog",JOL3,BAT,BOUNCE,Study1,M,12,12,JOL,User,-,"How likely are you to correctly recall the second item in the pair?|Type your response on a scale from 0-100 and then press Enter.",Study/JOL,"Study Phase",,7618,,,6100,6479,,,,35,1
BrandyChilson,gh0z4uwpcu,"Mediated JOLs",1,39,2023-04-02T05:01:04+00:00,7.0339679718018,6,versionC_stim.csv,JOLVersion_Recog.csv,"JOL Recog",JOL3,TREE,SYRUP,Study1,M,11,15,JOL,User,-,"How likely are you to correctly recall the second item in the pair?|Type your response on a scale from 0-100 and then press Enter.",Study/JOL,"Study Phase",,6727,,,5466,5672,,,,45,1
BrandyChilson,gh0z4uwpcu,"Mediated JOLs",1,40,2023-04-02T05:01:11+00:00,7.072793006897,6,versionC_stim.csv,JOLVersion_Recog.csv,"JOL Recog",JOL3,CAKE,HAND,Study1,U,49,39,JOL,User,-,"How likely are you to correctly recall the second item in the pair?|Type your response on a scale from 0-100 and then press Enter.",Study/JOL,"Study Phase",,6747,,,5179,5577,,,,70,1
BrandyChilson,gh0z4uwpcu,"Mediated JOLs",1,41,2023-04-02T05:01:18+00:00,6.7047200202942,6,versionC_stim.csv,JOLVersion_Recog.csv,"JOL Recog",JOL3,LISTEN,FICTION,Study1,U,44,14,JOL,User,-,"How likely are you to correctly recall the second item in the pair?|Type your response on a scale from 0-100 and then press Enter.",Study/JOL,"Study Phase",,6368,,,5181,5359,,,,55,1
BrandyChilson,gh0z4uwpcu,"Mediated JOLs",1,42,2023-04-02T05:01:25+00:00,7.0889580249786,6,versionC_stim.csv,JOLVersion_Recog.csv,"JOL Recog",JOL3,SOON,BELT,Study1,U,46,31,JOL,User,-,"How likely are you to correctly recall the second item in the pair?|Type your response on a scale from 0-100 and then press Enter.",Study/JOL,"Study Phase",,6637,,,5168,5399,,,,30,1
BrandyChilson,gh0z4uwpcu,"Mediated JOLs",1,43,2023-04-02T05:01:37+00:00,12.087202072144,6,versionC_stim.csv,JOLVersion_Recog.csv,"JOL Recog",JOL3,TEMPERATURE,MORNING,Study1,U,48,37,JOL,User,-,"How likely are you to correctly recall the second item in the pair?|Type your response on a scale from 0-100 and then press Enter.",Study/JOL,"Study Phase",,6222,,,5043,5301,,,,65,1
BrandyChilson,gh0z4uwpcu,"Mediated JOLs",1,44,2023-04-02T05:01:46+00:00,9.6576409339905,6,versionC_stim.csv,JOLVersion_Recog.csv,"JOL Recog",JOL3,MAZE,PHONE,Study1,U,42,20,JOL,User,-,"How likely are you to correctly recall the second item in the pair?|Type your response on a scale from 0-100 and then press Enter.",Study/JOL,"Study Phase",,5957,,,4732,4989,,,,45,1
BrandyChilson,gh0z4uwpcu,"Mediated JOLs",1,45,2023-04-02T05:01:54+00:00,7.4630000591278,6,versionC_stim.csv,JOLVersion_Recog.csv,"JOL Recog",JOL3,TOOTH,HAIR,Study1,M,19,44,JOL,User,-,"How likely are you to correctly recall the second item in the pair?|Type your response on a scale from 0-100 and then press Enter.",Study/JOL,"Study Phase",,7127,,,4801,5918,,,,35,1
BrandyChilson,gh0z4uwpcu,"Mediated JOLs",1,46,2023-04-02T05:02:02+00:00,8.3886530399323,6,versionC_stim.csv,JOLVersion_Recog.csv,"JOL Recog",JOL3,CRY,BOTTLE,Study1,M,16,34,JOL,User,-,"How likely are you to correctly recall the second item in the pair?|Type your response on a scale from 0-100 and then press Enter.",Study/JOL,"Study Phase",,8015,,,5677,6903,,,,68,1
BrandyChilson,gh0z4uwpcu,"Mediated JOLs",1,47,2023-04-02T05:02:08+00:00,6.1876838207245,6,versionC_stim.csv,JOLVersion_Recog.csv,"JOL Recog",JOL3,LITTER,TRASH,Study1,F,21,29,JOL,User,-,"How likely are you to correctly recall the second item in the pair?|Type your response on a scale from 0-100 and then press Enter.",Study/JOL,"Study Phase",,5869,,,4722,4927,,,,98,1
BrandyChilson,gh0z4uwpcu,"Mediated JOLs",1,48,2023-04-02T05:02:15+00:00,6.9922921657562,6,versionC_stim.csv,JOLVersion_Recog.csv,"JOL Recog",JOL3,SHELL,SHAKE,Study1,U,43,50,JOL,User,-,"How likely are you to correctly recall the second item in the pair?|Type your response on a scale from 0-100 and then press Enter.",Study/JOL,"Study Phase",,6672,,,4878,5526,,,,65,1
BrandyChilson,gh0z4uwpcu,"Mediated JOLs",1,49,2023-04-02T05:02:22+00:00,6.3033390045166,6,versionC_stim.csv,JOLVersion_Recog.csv,"JOL Recog",JOL3,AFFECTION,LOVE,Study1,F,31,13,JOL,User,-,"How likely are you to correctly recall the second item in the pair?|Type your response on a scale from 0-100 and then press Enter.",Study/JOL,"Study Phase",,5987,,,4632,5007,,,,100,1
BrandyChilson,gh0z4uwpcu,"Mediated JOLs",1,50,2023-04-02T05:02:29+00:00,6.9128468036652,6,versionC_stim.csv,JOLVersion_Recog.csv,"JOL Recog",JOL3,STRETCH,CLOTH,Study1,U,37,36,JOL,User,-,"How likely are you to correctly recall the second item in the pair?|Type your response on a scale from 0-100 and then press Enter.",Study/JOL,"Study Phase",,6578,,,5006,5630,,,,50,1
BrandyChilson,gh0z4uwpcu,"Mediated JOLs",1,51,2023-04-02T05:02:35+00:00,6.5470871925354,6,versionC_stim.csv,JOLVersion_Recog.csv,"JOL Recog",JOL3,SIP,DRINK,Study1,F,32,38,JOL,User,-,"How likely are you to correctly recall the second item in the pair?|Type your response on a scale from 0-100 and then press Enter.",Study/JOL,"Study Phase",,6221,,,4920,5283,,,,70,1
BrandyChilson,gh0z4uwpcu,"Mediated JOLs",1,52,2023-04-02T05:02:42+00:00,6.8156268596649,6,versionC_stim.csv,JOLVersion_Recog.csv,"JOL Recog",JOL3,FUZZY,BANG,Study1,U,50,25,JOL,User,-,"How likely are you to correctly recall the second item in the pair?|Type your response on a scale from 0-100 and then press Enter.",Study/JOL,"Study Phase",,6454,,,5253,5495,,,,45,1
BrandyChilson,gh0z4uwpcu,"Mediated JOLs",1,53,2023-04-02T05:02:50+00:00,7.9306571483612,6,versionC_stim.csv,JOLVersion_Recog.csv,"JOL Recog",JOL3,LION,STRIPES,Study1,M,6,18,JOL,User,-,"How likely are you to correctly recall the second item in the pair?|Type your response on a scale from 0-100 and then press Enter.",Study/JOL,"Study Phase",,7595,,,6060,6444,,,,85,1
BrandyChilson,gh0z4uwpcu,"Mediated JOLs",1,54,2023-04-02T05:02:58+00:00,8.3359220027924,6,versionC_stim.csv,JOLVersion_Recog.csv,"JOL Recog",JOL3,MIRROR,MAROON,Study1,U,36,10,JOL,User,-,"How likely are you to correctly recall the second item in the pair?|Type your response on a scale from 0-100 and then press Enter.",Study/JOL,"Study Phase",,6511,,,5608,5608,,,,5,1
BrandyChilson,gh0z4uwpcu,"Mediated JOLs",1,55,2023-04-02T05:03:06+00:00,7.6530158519745,6,versionC_stim.csv,JOLVersion_Recog.csv,"JOL Recog",JOL3,WEDDING,FINGER,Study1,M,17,23,JOL,User,-,"How likely are you to correctly recall the second item in the pair?|Type your response on a scale from 0-100 and then press Enter.",Study/JOL,"Study Phase",,7258,,,6143,6364,,,,65,1
BrandyChilson,gh0z4uwpcu,"Mediated JOLs",1,56,2023-04-02T05:03:13+00:00,7.4710021018982,6,versionC_stim.csv,JOLVersion_Recog.csv,"JOL Recog",JOL3,GEESE,GOOSE,BUFFER2,Buffer,51,53,JOL,User,-,"How likely are you to correctly recall the second item in the pair?|Type your response on a scale from 0-100 and then press Enter.",Study/JOL,BUFFER2,,7160,,,5430,6173,,,,100,1
BrandyChilson,gh0z4uwpcu,"Mediated JOLs",1,57,2023-04-02T05:03:26+00:00,12.649529933929,6,versionC_stim.csv,JOLVersion_Recog.csv,"JOL Recog",JOL3,MOON,SPACE,BUFFER2,Buffer,54,54,JOL,User,-,"How likely are you to correctly recall the second item in the pair?|Type your response on a scale from 0-100 and then press Enter.",Study/JOL,BUFFER2,,9176,,,4646,8203,,,,90,1
BrandyChilson,gh0z4uwpcu,"Mediated JOLs",1,58,2023-04-02T05:03:32+00:00,6.3017780780792,6,versionC_stim.csv,JOLVersion_Recog.csv,"JOL Recog",JOL3,MALT,CHOCOLATE,BUFFER2,Buffer,53,55,JOL,User,-,"How likely are you to correctly recall the second item in the pair?|Type your response on a scale from 0-100 and then press Enter.",Study/JOL,BUFFER2,,5995,,,4571,5016,,,,85,1
BrandyChilson,gh0z4uwpcu,"Mediated JOLs",1,59,2023-04-02T05:03:47+00:00,14.785621881485,6,versionC_stim.csv,JOLVersion_Recog.csv,"JOL Recog",JOL3,SHERRIF,POLICE,BUFFER2,Buffer,52,52,JOL,User,-,"How likely are you to correctly recall the second item in the pair?|Type your response on a scale from 0-100 and then press Enter.",Study/JOL,BUFFER2,,14446,,,9141,13318,,,,100,1
BrandyChilson,gh0z4uwpcu,"Mediated JOLs",1,60,2023-04-02T05:04:00+00:00,12.441555976868,6,versionC_stim.csv,JOLVersion_Recog.csv,"JOL Recog",JOL3,THING,STUFF,BUFFER2,Buffer,55,56,JOL,User,-,"How likely are you to correctly recall the second item in the pair?|Type your response on a scale from 0-100 and then press Enter.",Study/JOL,BUFFER2,,6232,,,4545,5075,,,,35,1
BrandyChilson,gh0z4uwpcu,"Mediated JOLs",1,61,2023-04-02T05:04:04+00:00,3.935072183609,6,versionC_stim.csv,JOLVersion_Recog.csv,"JOL Recog",JOL3,,,,,,0,Instruct,User,-,"You have completed this section. Please press Enter.",Filler_Instruction,Instruct2,,3426,,,-1,-1,,,,,1
BrandyChilson,gh0z4uwpcu,"Mediated JOLs",1,62,2023-04-02T05:06:06+00:00,122.78752493858,6,versionC_stim.csv,JOLVersion_Recog.csv,"JOL Recog",JOL3,,,,,,0,FreeRecall,120,120,"Please list the 50 US states in alphabetical order. The task will automatically advance to the next screen after two minutes.",,Filler1,,120005,"Alabama, Alaska, Arizona, ",0,50090,118169,0,0,,,0.781
BrandyChilson,gh0z4uwpcu,"Mediated JOLs",1,63,2023-04-02T05:06:22+00:00,15.706475019455,6,versionC_stim.csv,JOLVersion_Recog.csv,"JOL Recog",JOL3,,,,,,0,Instruct,User,10,"Your memory will now be tested. You will be presented with a series of words that may or may not have previously been presented alongisde another word. If the word on the screen was previously studied, please select YES. If the word was not studied, select NO. PLEASE DO NOT SKIP ITEMS! Click next when you are ready to begin.",,Instruc7982154d,,14945,,,-1,-1,,,,,1
BrandyChilson,gh0z4uwpcu,"Mediated JOLs",1,64,2023-04-02T05:07:04+00:00,41.757384061813,6,versionC_stim.csv,JOLVersion_Recog.csv,"JOL Recog",JOL3,,SACK,RECOG,CONTROL,93,141,Likert,User,1,"Was this item previously studied?",PRESENTED,Recog,1::2,40817,NO,0,-1,-1,0,0,,,0.906
BrandyChilson,gh0z4uwpcu,"Mediated JOLs",1,65,2023-04-02T05:07:07+00:00,3.3960089683533,6,versionC_stim.csv,JOLVersion_Recog.csv,"JOL Recog",JOL3,,DANCE,RECOG,Presented,109,92,Likert,User,1,"Was this item previously studied?",CONTROL,Recog,1::2,3166,YES,25,-1,-1,0,0,,,1
BrandyChilson,gh0z4uwpcu,"Mediated JOLs",1,66,2023-04-02T05:07:10+00:00,3.1117539405823,6,versionC_stim.csv,JOLVersion_Recog.csv,"JOL Recog",JOL3,,WOLF,RECOG,CONTROL,89,67,Likert,User,1,"Was this item previously studied?",CONTROL,Recog,1::2,2927,NO,33.333333333333,-1,-1,0,0,,,1
BrandyChilson,gh0z4uwpcu,"Mediated JOLs",1,67,2023-04-02T05:07:46+00:00,35.421658992767,6,versionC_stim.csv,JOLVersion_Recog.csv,"JOL Recog",JOL3,,CLUTTER,RECOG,CONTROL,92,122,Likert,User,1,"Was this item previously studied?",PRESENTED,Recog,1::2,35122,NO,0,-1,-1,0,0,,,0.829
BrandyChilson,gh0z4uwpcu,"Mediated JOLs",1,68,2023-04-02T05:08:21+00:00,35.01046204567,6,versionC_stim.csv,JOLVersion_Recog.csv,"JOL Recog",JOL3,,MUSCLE,RECOG,CONTROL,71,137,Likert,User,1,"Was this item previously studied?",PRESENTED,Recog,1::2,34586,NO,0,-1,-1,0,0,,,0.861
BrandyChilson,gh0z4uwpcu,"Mediated JOLs",1,69,2023-04-02T05:08:49+00:00,27.842314958572,6,versionC_stim.csv,JOLVersion_Recog.csv,"JOL Recog",JOL3,,HAIR,RECOG,Presented,115,103,Likert,User,1,"Was this item previously studied?",PRESENTED,Recog,1::2,27516,YES,0,-1,-1,0,0,,,0.861
BrandyChilson,gh0z4uwpcu,"Mediated JOLs",1,70,2023-04-02T05:08:52+00:00,3.1746280193329,6,versionC_stim.csv,JOLVersion_Recog.csv,"JOL Recog",JOL3,,HAMMER,RECOG,CONTROL,74,86,Likert,User,1,"Was this item previously studied?",CONTROL,Recog,1::2,2965,NO,0,-1,-1,0,0,,,1
BrandyChilson,gh0z4uwpcu,"Mediated JOLs",1,71,2023-04-02T05:08:55+00:00,2.7844040393829,6,versionC_stim.csv,JOLVersion_Recog.csv,"JOL Recog",JOL3,,FIRE,RECOG,CONTROL,77,101,Likert,User,1,"Was this item previously studied?",CONTROL,Recog,1::2,2601,NO,0,-1,-1,0,0,,,1
BrandyChilson,gh0z4uwpcu,"Mediated JOLs",1,72,2023-04-02T05:09:27+00:00,32.065559864044,6,versionC_stim.csv,JOLVersion_Recog.csv,"JOL Recog",JOL3,,CAR,RECOG,CONTROL,88,82,Likert,User,1,"Was this item previously studied?",CONTROL,Recog,1::2,31754,NO,0,-1,-1,0,0,,,0.833
BrandyChilson,gh0z4uwpcu,"Mediated JOLs",1,73,2023-04-02T05:09:29+00:00,2.6105811595917,6,versionC_stim.csv,JOLVersion_Recog.csv,"JOL Recog",JOL3,,LAWYER,RECOG,CONTROL,62,123,Likert,User,1,"Was this item previously studied?",PRESENTED,Recog,1::2,2407,NO,0,-1,-1,0,0,,,1
BrandyChilson,gh0z4uwpcu,"Mediated JOLs",1,74,2023-04-02T05:09:32+00:00,2.8191478252411,6,versionC_stim.csv,JOLVersion_Recog.csv,"JOL Recog",JOL3,,MONEY,RECOG,Presented,118,108,Likert,User,1,"Was this item previously studied?",PRESENTED,Recog,1::2,2638,YES,25,-1,-1,0,0,,,1
BrandyChilson,gh0z4uwpcu,"Mediated JOLs",1,75,2023-04-02T05:09:35+00:00,3.1228201389313,6,versionC_stim.csv,JOLVersion_Recog.csv,"JOL Recog",JOL3,,PIE,RECOG,Presented,105,69,Likert,User,1,"Was this item previously studied?",CONTROL,Recog,1::2,2939,YES,33.333333333333,-1,-1,0,0,,,1
BrandyChilson,gh0z4uwpcu,"Mediated JOLs",1,76,2023-04-02T05:09:40+00:00,4.988667011261,6,versionC_stim.csv,JOLVersion_Recog.csv,"JOL Recog",JOL3,,SLEEP,RECOG,Presented,125,107,Likert,User,1,"Was this item previously studied?",PRESENTED,Recog,1::2,4679,YES,25,-1,-1,0,0,,,1
BrandyChilson,gh0z4uwpcu,"Mediated JOLs",1,77,2023-04-02T05:09:43+00:00,3.16956782341,6,versionC_stim.csv,JOLVersion_Recog.csv,"JOL Recog",JOL3,,TOIL,RECOG,CONTROL,97,105,Likert,User,1,"Was this item previously studied?",PRESENTED,Recog,1::2,2961,NO,33.333333333333,-1,-1,0,0,,,1
BrandyChilson,gh0z4uwpcu,"Mediated JOLs",1,78,2023-04-02T05:09:57+00:00,13.587345123291,6,versionC_stim.csv,JOLVersion_Recog.csv,"JOL Recog",JOL3,,QUIET,RECOG,Presented,104,70,Likert,User,1,"Was this item previously studied?",CONTROL,Recog,1::2,13283,YES,25,-1,-1,0,0,,,0.915
BrandyChilson,gh0z4uwpcu,"Mediated JOLs",1,79,2023-04-02T05:10:00+00:00,2.7507100105286,6,versionC_stim.csv,JOLVersion_Recog.csv,"JOL Recog",JOL3,,SYRUP,RECOG,Presented,107,142,Likert,User,1,"Was this item previously studied?",PRESENTED,Recog,1::2,2536,YES,25,-1,-1,0,0,,,1
BrandyChilson,gh0z4uwpcu,"Mediated JOLs",1,80,2023-04-02T05:10:14+00:00,14.468117952347,6,versionC_stim.csv,JOLVersion_Recog.csv,"JOL Recog",JOL3,,PLANT,RECOG,Presented,121,73,Likert,User,1,"Was this item previously studied?",CONTROL,Recog,1::2,14180,YES,0,-1,-1,0,0,,,0.853
BrandyChilson,gh0z4uwpcu,"Mediated JOLs",1,81,2023-04-02T05:10:17+00:00,2.5889549255371,6,versionC_stim.csv,JOLVersion_Recog.csv,"JOL Recog",JOL3,,THIGH,RECOG,CONTROL,68,57,Likert,User,1,"Was this item previously studied?",CONTROL,Recog,1::2,2377,NO,0,-1,-1,0,0,,,1
BrandyChilson,gh0z4uwpcu,"Mediated JOLs",1,82,2023-04-02T05:10:20+00:00,2.8241271972656,6,versionC_stim.csv,JOLVersion_Recog.csv,"JOL Recog",JOL3,,CHILDREN,RECOG,CONTROL,100,104,Likert,User,1,"Was this item previously studied?",PRESENTED,Recog,1::2,2333,NO,20,-1,-1,0,0,,,1
BrandyChilson,gh0z4uwpcu,"Mediated JOLs",1,83,2023-04-02T05:10:23+00:00,3.0366268157959,6,versionC_stim.csv,JOLVersion_Recog.csv,"JOL Recog",JOL3,,SHAKE,RECOG,Presented,139,132,Likert,User,1,"Was this item previously studied?",PRESENTED,Recog,1::2,2450,YES,25,-1,-1,0,0,,,1
BrandyChilson,gh0z4uwpcu,"Mediated JOLs",1,84,2023-04-02T05:10:25+00:00,2.485344171524,6,versionC_stim.csv,JOLVersion_Recog.csv,"JOL Recog",JOL3,,COLLAR,RECOG,CONTROL,59,113,Likert,User,1,"Was this item previously studied?",PRESENTED,Recog,1::2,2305,NO,25,-1,-1,0,0,,,1
BrandyChilson,gh0z4uwpcu,"Mediated JOLs",1,85,2023-04-02T05:10:27+00:00,2.4026219844818,6,versionC_stim.csv,JOLVersion_Recog.csv,"JOL Recog",JOL3,,BOX,RECOG,Presented,103,77,Likert,User,1,"Was this item previously studied?",CONTROL,Recog,1::2,2221,YES,0,-1,-1,0,0,,,1
BrandyChilson,gh0z4uwpcu,"Mediated JOLs",1,86,2023-04-02T05:10:30+00:00,2.0511248111725,6,versionC_stim.csv,JOLVersion_Recog.csv,"JOL Recog",JOL3,,BUG,RECOG,CONTROL,85,80,Likert,User,1,"Was this item previously studied?",CONTROL,Recog,1::2,1869,NO,0,-1,-1,0,0,,,1
BrandyChilson,gh0z4uwpcu,"Mediated JOLs",1,87,2023-04-02T05:11:06+00:00,36.100342988968,6,versionC_stim.csv,JOLVersion_Recog.csv,"JOL Recog",JOL3,,DRINK,RECOG,CONTROL,63,118,Likert,User,1,"Was this item previously studied?",PRESENTED,Recog,1::2,35783,YES,0,-1,-1,0,0,,,0.818
BrandyChilson,gh0z4uwpcu,"Mediated JOLs",1,88,2023-04-02T05:11:48+00:00,42.184225082397,6,versionC_stim.csv,JOLVersion_Recog.csv,"JOL Recog",JOL3,,CLEAN,RECOG,Presented,124,64,Likert,User,1,"Was this item previously studied?",CONTROL,Recog,1::2,41550,NO,28.571428571429,-1,-1,0,0,,,0.911
BrandyChilson,gh0z4uwpcu,"Mediated JOLs",1,89,2023-04-02T05:11:51+00:00,3.1462669372559,6,versionC_stim.csv,JOLVersion_Recog.csv,"JOL Recog",JOL3,,SMELL,RECOG,CONTROL,61,68,Likert,User,1,"Was this item previously studied?",CONTROL,Recog,1::2,2935,NO,0,-1,-1,0,0,,,1
BrandyChilson,gh0z4uwpcu,"Mediated JOLs",1,90,2023-04-02T05:12:28+00:00,37.141668081284,6,versionC_stim.csv,JOLVersion_Recog.csv,"JOL Recog",JOL3,,ACCIDENT,RECOG,CONTROL,90,145,Likert,User,1,"Was this item previously studied?",PRESENTED,Recog,1::2,36817,NO,20,-1,-1,0,0,,,0.844
BrandyChilson,gh0z4uwpcu,"Mediated JOLs",1,91,2023-04-02T05:13:17+00:00,48.727688074112,6,versionC_stim.csv,JOLVersion_Recog.csv,"JOL Recog",JOL3,,ISLAND,RECOG,CONTROL,60,111,Likert,User,1,"Was this item previously studied?",PRESENTED,Recog,1::2,48388,NO,25,-1,-1,0,0,,,0.926
BrandyChilson,gh0z4uwpcu,"Mediated JOLs",1,92,2023-04-02T05:13:20+00:00,2.8991980552673,6,versionC_stim.csv,JOLVersion_Recog.csv,"JOL Recog",JOL3,,DONKEY,RECOG,Presented,120,98,Likert,User,1,"Was this item previously studied?",CONTROL,Recog,1::2,2688,YES,22.222222222222,-1,-1,0,0,,,1
BrandyChilson,gh0z4uwpcu,"Mediated JOLs",1,93,2023-04-02T05:13:40+00:00,20.710188865662,6,versionC_stim.csv,JOLVersion_Recog.csv,"JOL Recog",JOL3,,COTTON,RECOG,Presented,116,143,Likert,User,1,"Was this item previously studied?",PRESENTED,Recog,1::2,20392,YES,0,-1,-1,0,0,,,0.872
BrandyChilson,gh0z4uwpcu,"Mediated JOLs",1,94,2023-04-02T05:14:11+00:00,31.026710987091,6,versionC_stim.csv,JOLVersion_Recog.csv,"JOL Recog",JOL3,,MORNING,RECOG,Presented,144,135,Likert,User,1,"Was this item previously studied?",PRESENTED,Recog,1::2,30680,YES,0,-1,-1,0,0,,,0.829
BrandyChilson,gh0z4uwpcu,"Mediated JOLs",1,95,2023-04-02T05:14:46+00:00,34.480361938477,6,versionC_stim.csv,JOLVersion_Recog.csv,"JOL Recog",JOL3,,CAVE,RECOG,CONTROL,66,59,Likert,User,1,"Was this item previously studied?",CONTROL,Recog,1::2,34152,NO,0,-1,-1,0,0,,,0.878
BrandyChilson,gh0z4uwpcu,"Mediated JOLs",1,96,2023-04-02T05:14:48+00:00,2.2656321525574,6,versionC_stim.csv,JOLVersion_Recog.csv,"JOL Recog",JOL3,,VASE,RECOG,CONTROL,87,114,Likert,User,1,"Was this item previously studied?",PRESENTED,Recog,1::2,2050,NO,0,-1,-1,0,0,,,1
BrandyChilson,gh0z4uwpcu,"Mediated JOLs",1,97,2023-04-02T05:15:19+00:00,30.316133022308,6,versionC_stim.csv,JOLVersion_Recog.csv,"JOL Recog",JOL3,,CLOTH,RECOG,Presented,133,95,Likert,User,1,"Was this item previously studied?",CONTROL,Recog,1::2,29999,YES,0,-1,-1,0,0,,,0.868
BrandyChilson,gh0z4uwpcu,"Mediated JOLs",1,98,2023-04-02T05:15:22+00:00,3.1330208778381,6,versionC_stim.csv,JOLVersion_Recog.csv,"JOL Recog",JOL3,,WHEEL,RECOG,Presented,110,65,Likert,User,1,"Was this item previously studied?",CONTROL,Recog,1::2,2922,YES,25,-1,-1,0,0,,,1
BrandyChilson,gh0z4uwpcu,"Mediated JOLs",1,99,2023-04-02T05:15:24+00:00,2.7463121414185,6,versionC_stim.csv,JOLVersion_Recog.csv,"JOL Recog",JOL3,,CARD,RECOG,Presented,129,106,Likert,User,1,"Was this item previously studied?",PRESENTED,Recog,1::2,2559,YES,0,-1,-1,0,0,,,1
BrandyChilson,gh0z4uwpcu,"Mediated JOLs",1,100,2023-04-02T05:15:58+00:00,33.990234851837,6,versionC_stim.csv,JOLVersion_Recog.csv,"JOL Recog",JOL3,,HIDE,RECOG,CONTROL,96,112,Likert,User,1,"Was this item previously studied?",PRESENTED,Recog,1::2,33688,NO,0,-1,-1,0,0,,,0.868
BrandyChilson,gh0z4uwpcu,"Mediated JOLs",1,101,2023-04-02T05:16:36+00:00,37.923789978027,6,versionC_stim.csv,JOLVersion_Recog.csv,"JOL Recog",JOL3,,WATER,RECOG,CONTROL,86,102,Likert,User,1,"Was this item previously studied?",PRESENTED,Recog,1::2,37092,NO,0,-1,-1,0,0,,,0.895
BrandyChilson,gh0z4uwpcu,"Mediated JOLs",1,102,2023-04-02T05:16:39+00:00,2.6228849887848,6,versionC_stim.csv,JOLVersion_Recog.csv,"JOL Recog",JOL3,,HORN,RECOG,CONTROL,94,91,Likert,User,1,"Was this item previously studied?",CONTROL,Recog,1::2,2405,NO,33.333333333333,-1,-1,0,0,,,1
BrandyChilson,gh0z4uwpcu,"Mediated JOLs",1,103,2023-04-02T05:16:42+00:00,2.8258512020111,6,versionC_stim.csv,JOLVersion_Recog.csv,"JOL Recog",JOL3,,BUSINESS,RECOG,CONTROL,95,58,Likert,User,1,"Was this item previously studied?",CONTROL,Recog,1::2,2643,NO,20,-1,-1,0,0,,,1
BrandyChilson,gh0z4uwpcu,"Mediated JOLs",1,104,2023-04-02T05:16:45+00:00,3.0867328643799,6,versionC_stim.csv,JOLVersion_Recog.csv,"JOL Recog",JOL3,,KNOB,RECOG,CONTROL,70,81,Likert,User,1,"Was this item previously studied?",CONTROL,Recog,1::2,2908,NO,66.666666666667,-1,-1,0,0,,,1
BrandyChilson,gh0z4uwpcu,"Mediated JOLs",1,105,2023-04-02T05:17:29+00:00,44.180126905441,6,versionC_stim.csv,JOLVersion_Recog.csv,"JOL Recog",JOL3,,COLD,RECOG,CONTROL,83,90,Likert,User,1,"Was this item previously studied?",CONTROL,Recog,1::2,43878,NO,33.333333333333,-1,-1,0,0,,,0.848
BrandyChilson,gh0z4uwpcu,"Mediated JOLs",1,106,2023-04-02T05:17:32+00:00,2.9896891117096,6,versionC_stim.csv,JOLVersion_Recog.csv,"JOL Recog",JOL3,,TICK,RECOG,Presented,143,131,Likert,User,1,"Was this item previously studied?",PRESENTED,Recog,1::2,2776,YES,0,-1,-1,0,0,,,1
BrandyChilson,gh0z4uwpcu,"Mediated JOLs",1,107,2023-04-02T05:17:35+00:00,2.7525858879089,6,versionC_stim.csv,JOLVersion_Recog.csv,"JOL Recog",JOL3,,PEAK,RECOG,CONTROL,69,96,Likert,User,1,"Was this item previously studied?",CONTROL,Recog,1::2,2570,NO,0,-1,-1,0,0,,,1
BrandyChilson,gh0z4uwpcu,"Mediated JOLs",1,108,2023-04-02T05:17:38+00:00,3.2846660614014,6,versionC_stim.csv,JOLVersion_Recog.csv,"JOL Recog",JOL3,,BASEBALL,RECOG,CONTROL,80,144,Likert,User,1,"Was this item previously studied?",PRESENTED,Recog,1::2,3103,NO,0,-1,-1,0,0,,,1
BrandyChilson,gh0z4uwpcu,"Mediated JOLs",1,109,2023-04-02T05:17:49+00:00,10.853662014008,6,versionC_stim.csv,JOLVersion_Recog.csv,"JOL Recog",JOL3,,KEYS,RECOG,Presented,137,100,Likert,User,1,"Was this item previously studied?",CONTROL,Recog,1::2,10531,YES,57.142857142857,-1,-1,0,0,,,0.806
BrandyChilson,gh0z4uwpcu,"Mediated JOLs",1,110,2023-04-02T05:17:52+00:00,3.3676669597626,6,versionC_stim.csv,JOLVersion_Recog.csv,"JOL Recog",JOL3,,RIDDLE,RECOG,CONTROL,91,124,Likert,User,1,"Was this item previously studied?",PRESENTED,Recog,1::2,3155,NO,0,-1,-1,0,0,,,1
BrandyChilson,gh0z4uwpcu,"Mediated JOLs",1,111,2023-04-02T05:17:55+00:00,2.4153699874878,6,versionC_stim.csv,JOLVersion_Recog.csv,"JOL Recog",JOL3,,STEAK,RECOG,Presented,134,74,Likert,User,1,"Was this item previously studied?",CONTROL,Recog,1::2,2227,YES,25,-1,-1,0,0,,,1
BrandyChilson,gh0z4uwpcu,"Mediated JOLs",1,112,2023-04-02T05:17:57+00:00,2.2546880245209,6,versionC_stim.csv,JOLVersion_Recog.csv,"JOL Recog",JOL3,,MAROON,RECOG,Presented,132,117,Likert,User,1,"Was this item previously studied?",PRESENTED,Recog,1::2,2070,YES,0,-1,-1,0,0,,,1
BrandyChilson,gh0z4uwpcu,"Mediated JOLs",1,113,2023-04-02T05:17:59+00:00,2.4043550491333,6,versionC_stim.csv,JOLVersion_Recog.csv,"JOL Recog",JOL3,,DARK,RECOG,Presented,114,110,Likert,User,1,"Was this item previously studied?",PRESENTED,Recog,1::2,2212,YES,0,-1,-1,0,0,,,1
BrandyChilson,gh0z4uwpcu,"Mediated JOLs",1,114,2023-04-02T05:18:44+00:00,44.739342927933,6,versionC_stim.csv,JOLVersion_Recog.csv,"JOL Recog",JOL3,,BANG,RECOG,Presented,146,121,Likert,User,1,"Was this item previously studied?",PRESENTED,Recog,1::2,44432,YES,0,-1,-1,0,0,,,0.915
BrandyChilson,gh0z4uwpcu,"Mediated JOLs",1,115,2023-04-02T05:18:49+00:00,4.5457830429077,6,versionC_stim.csv,JOLVersion_Recog.csv,"JOL Recog",JOL3,,BIRD,RECOG,Presented,122,109,Likert,User,1,"Was this item previously studied?",PRESENTED,Recog,1::2,4216,YES,0,-1,-1,0,0,,,1
BrandyChilson,gh0z4uwpcu,"Mediated JOLs",1,116,2023-04-02T05:18:51+00:00,2.1549699306488,6,versionC_stim.csv,JOLVersion_Recog.csv,"JOL Recog",JOL3,,FLOWER,RECOG,Presented,130,66,Likert,User,1,"Was this item previously studied?",CONTROL,Recog,1::2,1955,YES,22.222222222222,-1,-1,0,0,,,1
BrandyChilson,gh0z4uwpcu,"Mediated JOLs",1,117,2023-04-02T05:19:33+00:00,41.715557098389,6,versionC_stim.csv,JOLVersion_Recog.csv,"JOL Recog",JOL3,,FIGHT,RECOG,CONTROL,82,62,Likert,User,1,"Was this item previously studied?",CONTROL,Recog,1::2,40483,NO,0,-1,-1,0,0,,,0.857
BrandyChilson,gh0z4uwpcu,"Mediated JOLs",1,118,2023-04-02T05:19:50+00:00,17.854859113693,6,versionC_stim.csv,JOLVersion_Recog.csv,"JOL Recog",JOL3,,FISH,RECOG,Presented,131,133,Likert,User,1,"Was this item previously studied?",PRESENTED,Recog,1::2,16644,YES,28.571428571429,-1,-1,0,0,,,0.868
BrandyChilson,gh0z4uwpcu,"Mediated JOLs",1,119,2023-04-02T05:19:54+00:00,3.760134935379,6,versionC_stim.csv,JOLVersion_Recog.csv,"JOL Recog",JOL3,,SENTENCE,RECOG,Presented,123,119,Likert,User,1,"Was this item previously studied?",PRESENTED,Recog,1::2,3426,NO,20,-1,-1,0,0,,,1
BrandyChilson,gh0z4uwpcu,"Mediated JOLs",1,120,2023-04-02T05:19:57+00:00,2.4777128696442,6,versionC_stim.csv,JOLVersion_Recog.csv,"JOL Recog",JOL3,,BOUNCE,RECOG,Presented,108,129,Likert,User,1,"Was this item previously studied?",PRESENTED,Recog,1::2,2292,YES,22.222222222222,-1,-1,0,0,,,1
BrandyChilson,gh0z4uwpcu,"Mediated JOLs",1,121,2023-04-02T05:20:00+00:00,2.9718291759491,6,versionC_stim.csv,JOLVersion_Recog.csv,"JOL Recog",JOL3,,BOTTLE,RECOG,Presented,112,99,Likert,User,1,"Was this item previously studied?",CONTROL,Recog,1::2,2788,YES,22.222222222222,-1,-1,0,0,,,1
BrandyChilson,gh0z4uwpcu,"Mediated JOLs",1,122,2023-04-02T05:20:03+00:00,3.463840007782,6,versionC_stim.csv,JOLVersion_Recog.csv,"JOL Recog",JOL3,,FICTION,RECOG,Presented,140,126,Likert,User,1,"Was this item previously studied?",PRESENTED,Recog,1::2,3285,YES,0,-1,-1,0,0,,,1
BrandyChilson,gh0z4uwpcu,"Mediated JOLs",1,123,2023-04-02T05:20:48+00:00,44.45396900177,6,versionC_stim.csv,JOLVersion_Recog.csv,"JOL Recog",JOL3,,PAPER,RECOG,CONTROL,78,97,Likert,User,1,"Was this item previously studied?",CONTROL,Recog,1::2,44142,NO,0,-1,-1,0,0,,,0.917
BrandyChilson,gh0z4uwpcu,"Mediated JOLs",1,124,2023-04-02T05:20:53+00:00,5.153981924057,6,versionC_stim.csv,JOLVersion_Recog.csv,"JOL Recog",JOL3,,ELECTION,RECOG,Presented,135,140,Likert,User,1,"Was this item previously studied?",PRESENTED,Recog,1::2,4821,YES,18.181818181818,-1,-1,0,0,,,1
BrandyChilson,gh0z4uwpcu,"Mediated JOLs",1,125,2023-04-02T05:20:56+00:00,3.0029010772705,6,versionC_stim.csv,JOLVersion_Recog.csv,"JOL Recog",JOL3,,COW,RECOG,CONTROL,84,130,Likert,User,1,"Was this item previously studied?",PRESENTED,Recog,1::2,2801,NO,40,-1,-1,0,0,,,1
BrandyChilson,gh0z4uwpcu,"Mediated JOLs",1,126,2023-04-02T05:21:41+00:00,44.924494028091,6,versionC_stim.csv,JOLVersion_Recog.csv,"JOL Recog",JOL3,,SEED,RECOG,CONTROL,65,63,Likert,User,1,"Was this item previously studied?",CONTROL,Recog,1::2,44612,NO,0,-1,-1,0,0,,,0.889
BrandyChilson,gh0z4uwpcu,"Mediated JOLs",1,127,2023-04-02T05:21:45+00:00,4.1413888931274,6,versionC_stim.csv,JOLVersion_Recog.csv,"JOL Recog",JOL3,,STING,RECOG,CONTROL,81,85,Likert,User,1,"Was this item previously studied?",CONTROL,Recog,1::2,3928,NO,28.571428571429,-1,-1,0,0,,,1
BrandyChilson,gh0z4uwpcu,"Mediated JOLs",1,128,2023-04-02T05:22:02+00:00,17.640297889709,6,versionC_stim.csv,JOLVersion_Recog.csv,"JOL Recog",JOL3,,HEAD,RECOG,Presented,119,136,Likert,User,1,"Was this item previously studied?",PRESENTED,Recog,1::2,17326,YES,28.571428571429,-1,-1,0,0,,,0.828
BrandyChilson,gh0z4uwpcu,"Mediated JOLs",1,129,2023-04-02T05:22:05+00:00,3.115706205368,6,versionC_stim.csv,JOLVersion_Recog.csv,"JOL Recog",JOL3,,ROD,RECOG,Presented,141,83,Likert,User,1,"Was this item previously studied?",CONTROL,Recog,1::2,2895,YES,0,-1,-1,0,0,,,1
BrandyChilson,gh0z4uwpcu,"Mediated JOLs",1,130,2023-04-02T05:22:08+00:00,2.9686348438263,6,versionC_stim.csv,JOLVersion_Recog.csv,"JOL Recog",JOL3,,SMELL,RECOG,CONTROL,79,87,Likert,User,1,"Was this item previously studied?",CONTROL,Recog,1::2,2774,NO,0,-1,-1,0,0,,,1
BrandyChilson,gh0z4uwpcu,"Mediated JOLs",1,131,2023-04-02T05:23:12+00:00,63.533898115158,6,versionC_stim.csv,JOLVersion_Recog.csv,"JOL Recog",JOL3,,BRONZE,RECOG,CONTROL,99,78,Likert,User,1,"Was this item previously studied?",CONTROL,Recog,1::2,63203,NO,25,-1,-1,0,0,,,0.854
BrandyChilson,gh0z4uwpcu,"Mediated JOLs",1,132,2023-04-02T05:23:18+00:00,6.0509469509125,6,versionC_stim.csv,JOLVersion_Recog.csv,"JOL Recog",JOL3,,FEATHER,RECOG,CONTROL,64,84,Likert,User,1,"Was this item previously studied?",CONTROL,Recog,1::2,5725,NO,0,-1,-1,0,0,,,1
BrandyChilson,gh0z4uwpcu,"Mediated JOLs",1,133,2023-04-02T05:23:21+00:00,3.1999509334564,6,versionC_stim.csv,JOLVersion_Recog.csv,"JOL Recog",JOL3,,STOP,RECOG,CONTROL,58,88,Likert,User,1,"Was this item previously studied?",CONTROL,Recog,1::2,2999,NO,33.333333333333,-1,-1,0,0,,,1
BrandyChilson,gh0z4uwpcu,"Mediated JOLs",1,134,2023-04-02T05:23:23+00:00,2.2280440330505,6,versionC_stim.csv,JOLVersion_Recog.csv,"JOL Recog",JOL3,,CARPET,RECOG,Presented,111,72,Likert,User,1,"Was this item previously studied?",CONTROL,Recog,1::2,2038,YES,22.222222222222,-1,-1,0,0,,,1
BrandyChilson,gh0z4uwpcu,"Mediated JOLs",1,135,2023-04-02T05:23:27+00:00,3.5280261039734,6,versionC_stim.csv,JOLVersion_Recog.csv,"JOL Recog",JOL3,,PHONE,RECOG,Presented,138,116,Likert,User,1,"Was this item previously studied?",PRESENTED,Recog,1::2,3276,NO,28.571428571429,-1,-1,0,0,,,1
BrandyChilson,gh0z4uwpcu,"Mediated JOLs",1,136,2023-04-02T05:23:29+00:00,2.4595580101013,6,versionC_stim.csv,JOLVersion_Recog.csv,"JOL Recog",JOL3,,BELT,RECOG,Presented,142,125,Likert,User,1,"Was this item previously studied?",PRESENTED,Recog,1::2,2257,YES,28.571428571429,-1,-1,0,0,,,1
BrandyChilson,gh0z4uwpcu,"Mediated JOLs",1,137,2023-04-02T05:23:32+00:00,2.8514428138733,6,versionC_stim.csv,JOLVersion_Recog.csv,"JOL Recog",JOL3,,BASKET,RECOG,CONTROL,67,127,Likert,User,1,"Was this item previously studied?",PRESENTED,Recog,1::2,2660,NO,0,-1,-1,0,0,,,1
BrandyChilson,gh0z4uwpcu,"Mediated JOLs",1,138,2023-04-02T05:24:19+00:00,46.497730016708,6,versionC_stim.csv,JOLVersion_Recog.csv,"JOL Recog",JOL3,,CLOTHES,RECOG,CONTROL,75,89,Likert,User,1,"Was this item previously studied?",CONTROL,Recog,1::2,46190,NO,22.222222222222,-1,-1,0,0,,,0.913
BrandyChilson,gh0z4uwpcu,"Mediated JOLs",1,139,2023-04-02T05:24:22+00:00,3.0797829627991,6,versionC_stim.csv,JOLVersion_Recog.csv,"JOL Recog",JOL3,,SNOW,RECOG,CONTROL,57,120,Likert,User,1,"Was this item previously studied?",PRESENTED,Recog,1::2,2865,YES,28.571428571429,-1,-1,0,0,,,1
BrandyChilson,gh0z4uwpcu,"Mediated JOLs",1,140,2023-04-02T05:24:27+00:00,5.0409920215607,6,versionC_stim.csv,JOLVersion_Recog.csv,"JOL Recog",JOL3,,PLANT,RECOG,CONTROL,72,75,Likert,User,1,"Was this item previously studied?",CONTROL,Recog,1::2,4735,YES,0,-1,-1,0,0,,,1
BrandyChilson,gh0z4uwpcu,"Mediated JOLs",1,141,2023-04-02T05:24:30+00:00,3.1628091335297,6,versionC_stim.csv,JOLVersion_Recog.csv,"JOL Recog",JOL3,,OUNCE,RECOG,CONTROL,98,71,Likert,User,1,"Was this item previously studied?",CONTROL,Recog,1::2,2967,NO,28.571428571429,-1,-1,0,0,,,1
BrandyChilson,gh0z4uwpcu,"Mediated JOLs",1,142,2023-04-02T05:24:33+00:00,2.5376629829407,6,versionC_stim.csv,JOLVersion_Recog.csv,"JOL Recog",JOL3,,SILK,RECOG,Presented,106,146,Likert,User,1,"Was this item previously studied?",PRESENTED,Recog,1::2,2349,YES,28.571428571429,-1,-1,0,0,,,1
BrandyChilson,gh0z4uwpcu,"Mediated JOLs",1,143,2023-04-02T05:24:35+00:00,2.2168729305267,6,versionC_stim.csv,JOLVersion_Recog.csv,"JOL Recog",JOL3,,TRASH,RECOG,Presented,117,138,Likert,User,1,"Was this item previously studied?",PRESENTED,Recog,1::2,2036,YES,25,-1,-1,0,0,,,1
BrandyChilson,gh0z4uwpcu,"Mediated JOLs",1,144,2023-04-02T05:24:38+00:00,2.7066309452057,6,versionC_stim.csv,JOLVersion_Recog.csv,"JOL Recog",JOL3,,LEG,RECOG,CONTROL,101,94,Likert,User,1,"Was this item previously studied?",CONTROL,Recog,1::2,2517,NO,0,-1,-1,0,0,,,1
BrandyChilson,gh0z4uwpcu,"Mediated JOLs",1,145,2023-04-02T05:24:41+00:00,3.4940400123596,6,versionC_stim.csv,JOLVersion_Recog.csv,"JOL Recog",JOL3,,DRINK,RECOG,Presented,128,115,Likert,User,1,"Was this item previously studied?",PRESENTED,Recog,1::2,3300,YES,0,-1,-1,0,0,,,1
BrandyChilson,gh0z4uwpcu,"Mediated JOLs",1,146,2023-04-02T05:24:44+00:00,3.2365660667419,6,versionC_stim.csv,JOLVersion_Recog.csv,"JOL Recog",JOL3,,CUT,RECOG,CONTROL,73,139,Likert,User,1,"Was this item previously studied?",PRESENTED,Recog,1::2,3054,NO,0,-1,-1,0,0,,,1
BrandyChilson,gh0z4uwpcu,"Mediated JOLs",1,147,2023-04-02T05:24:47+00:00,2.3992140293121,6,versionC_stim.csv,JOLVersion_Recog.csv,"JOL Recog",JOL3,,FINGER,RECOG,Presented,113,60,Likert,User,1,"Was this item previously studied?",CONTROL,Recog,1::2,2216,YES,22.222222222222,-1,-1,0,0,,,1
BrandyChilson,gh0z4uwpcu,"Mediated JOLs",1,148,2023-04-02T05:25:03+00:00,16.643326997757,6,versionC_stim.csv,JOLVersion_Recog.csv,"JOL Recog",JOL3,,RED,RECOG,CONTROL,76,61,Likert,User,1,"Was this item previously studied?",CONTROL,Recog,1::2,16301,NO,0,-1,-1,0,0,,,1
BrandyChilson,gh0z4uwpcu,"Mediated JOLs",1,149,2023-04-02T05:25:08+00:00,4.7902679443359,6,versionC_stim.csv,JOLVersion_Recog.csv,"JOL Recog",JOL3,,HAND,RECOG,Presented,145,128,Likert,User,1,"Was this item previously studied?",PRESENTED,Recog,1::2,4443,YES,0,-1,-1,0,0,,,1
BrandyChilson,gh0z4uwpcu,"Mediated JOLs",1,150,2023-04-02T05:25:11+00:00,2.9999511241913,6,versionC_stim.csv,JOLVersion_Recog.csv,"JOL Recog",JOL3,,DONKEY,RECOG,Presented,126,79,Likert,User,1,"Was this item previously studied?",CONTROL,Recog,1::2,2790,YES,22.222222222222,-1,-1,0,0,,,1
BrandyChilson,gh0z4uwpcu,"Mediated JOLs",1,151,2023-04-02T05:26:07+00:00,55.88827586174,6,versionC_stim.csv,JOLVersion_Recog.csv,"JOL Recog",JOL3,,STRIPES,RECOG,Presented,102,134,Likert,User,1,"Was this item previously studied?",PRESENTED,Recog,1::2,55573,YES,40,-1,-1,0,0,,,0.881
BrandyChilson,gh0z4uwpcu,"Mediated JOLs",1,152,2023-04-02T05:26:10+00:00,2.5259790420532,6,versionC_stim.csv,JOLVersion_Recog.csv,"JOL Recog",JOL3,,CHARM,RECOG,Presented,136,76,Likert,User,1,"Was this item previously studied?",CONTROL,Recog,1::2,2323,YES,0,-1,-1,0,0,,,1
BrandyChilson,gh0z4uwpcu,"Mediated JOLs",1,153,2023-04-02T05:26:12+00:00,2.5674879550934,6,versionC_stim.csv,JOLVersion_Recog.csv,"JOL Recog",JOL3,,LOVE,RECOG,Presented,127,93,Likert,User,1,"Was this item previously studied?",CONTROL,Recog,1::2,2376,YES,28.571428571429,-1,-1,0,0,,,1
BrandyChilson,gh0z4uwpcu,"Mediated JOLs",1,154,2023-04-02T05:26:15+00:00,2.7926080226898,6,versionC_stim.csv,JOLVersion_Recog.csv,"JOL Recog",JOL3,,,,,,0,Instruct,User,-,"You have completed this section. Please press Enter.",,Instruct7,,2605,,,-1,-1,,,,,1
BrandyChilson,gh0z4uwpcu,"Mediated JOLs",1,155,2023-04-02T05:27:33+00:00,77.674225091934,6,versionC_stim.csv,JOLVersion_Recog.csv,"JOL Recog",JOL3,,,,,,0,Instruct,User,-,"The following screen will ask you a few questions abour your experience today. You must complete these questions to receive credit.",,Instruct8,,65138,,,-1,-1,,,,,1
