Username,ID,ExperimentName,Session,Trial,Date,TimeDif,"Condition Number","Stimuli File","Order File","Condition Description","Condition Notes",Stimuli*Cue,Stimuli*Answer,Stimuli*Shuffle,"Stimuli*Stimuli Notes",Stimuli*Value,Procedure*Item,"Procedure*Trial Type","Procedure*Max Time","Procedure*Min Time",Procedure*Text,"Procedure*Procedure Notes",Procedure*Shuffle,Procedure*,Response*RT,Response*Response,Response*Accuracy,Response*RTfirst,Response*RTlast,Response*strictAcc,Response*lenientAcc,Response*focus,Response*JOL,Response*Focus
ShamaraConerly,3ybdl9xnku,"Mediated JOLs",1,1,2023-04-05T17:47:55+00:00,15.870724916458,6,versionC_stim.csv,JOLVersion_Recog.csv,"JOL Recog",JOL3,,,,,,0,Instruct,-,5,"In this section, you will be presented with a series of word pairs. Please study each word pair! Your memory will be tested!",Initial_Instruct,Instruct1,,15730,,,-1,-1,,,,,1
ShamaraConerly,3ybdl9xnku,"Mediated JOLs",1,2,2023-04-05T17:48:07+00:00,11.973121166229,6,versionC_stim.csv,JOLVersion_Recog.csv,"JOL Recog",JOL3,,,,,,0,Instruct,-,10,"As you study, you will be asked to rate your ability to remember the second item in the pair on a later test. You will make these ratings using a 0 to 100 Scale.",,Instruct13,,11723,,,-1,-1,,,,,1
ShamaraConerly,3ybdl9xnku,"Mediated JOLs",1,3,2023-04-05T17:48:20+00:00,13.024493932724,6,versionC_stim.csv,JOLVersion_Recog.csv,"JOL Recog",JOL3,,,,,,0,Instruct,-,10,"For example, if you are given the pair CAT - DOG, a rating of 0 indicates that you would not remember DOG at test, while a rating of 100 indicates full certainty that you would remember the word DOG at test.",,Instruct14,,12803,,,-1,-1,,,,,1
ShamaraConerly,3ybdl9xnku,"Mediated JOLs",1,4,2023-04-05T17:48:34+00:00,13.683786869049,6,versionC_stim.csv,JOLVersion_Recog.csv,"JOL Recog",JOL3,,,,,,0,Instruct,-,10,"When making your ratings, it is criticial that you use the full range of the scale. You will be disqualified for only giving ratings of 0 or 100! After making your rating, press Enter to advance to the next pair.",,Instruct15,,13464,,,-1,-1,,,,,1
ShamaraConerly,3ybdl9xnku,"Mediated JOLs",1,5,2023-04-05T17:48:43+00:00,9.4657061100006,6,versionC_stim.csv,JOLVersion_Recog.csv,"JOL Recog",JOL3,,,,,,0,Instruct,User,-,"You will now begin the study. Press Enter when you are ready to begin.",,Instruct16,,9244,,,-1,-1,,,,,1
ShamaraConerly,3ybdl9xnku,"Mediated JOLs",1,6,2023-04-05T17:48:57+00:00,13.778079986572,6,versionC_stim.csv,JOLVersion_Recog.csv,"JOL Recog",JOL3,PITCHER,CATCHER,BUFFER1,Buffer,2,2,JOL,User,-,"How likely are you to correctly recall the second item in the pair?|Type your response on a scale from 0-100 and then press Enter.",Study/JOL,BUFFER,,13536,,,5726,6124,,,,100,1
ShamaraConerly,3ybdl9xnku,"Mediated JOLs",1,7,2023-04-05T17:49:08+00:00,10.530007123947,6,versionC_stim.csv,JOLVersion_Recog.csv,"JOL Recog",JOL3,PEANUT,BUTTER,BUFFER1,Buffer,3,4,JOL,User,-,"How likely are you to correctly recall the second item in the pair?|Type your response on a scale from 0-100 and then press Enter.",Study/JOL,BUFFER,,10183,,,9311,9484,,,,90,1
ShamaraConerly,3ybdl9xnku,"Mediated JOLs",1,8,2023-04-05T17:49:15+00:00,7.4707028865814,6,versionC_stim.csv,JOLVersion_Recog.csv,"JOL Recog",JOL3,SPACE,JAM,BUFFER1,Buffer,5,6,JOL,User,-,"How likely are you to correctly recall the second item in the pair?|Type your response on a scale from 0-100 and then press Enter.",Study/JOL,BUFFER,,7152,,,6398,6675,,,,90,1
ShamaraConerly,3ybdl9xnku,"Mediated JOLs",1,9,2023-04-05T17:49:21+00:00,6.0092079639435,6,versionC_stim.csv,JOLVersion_Recog.csv,"JOL Recog",JOL3,SCARE,FRIGHT,BUFFER1,Buffer,4,5,JOL,User,-,"How likely are you to correctly recall the second item in the pair?|Type your response on a scale from 0-100 and then press Enter.",Study/JOL,BUFFER,,5771,,,4898,5341,,,,80,1
ShamaraConerly,3ybdl9xnku,"Mediated JOLs",1,10,2023-04-05T17:49:25+00:00,4.1404340267181,6,versionC_stim.csv,JOLVersion_Recog.csv,"JOL Recog",JOL3,TREES,GREEN,BUFFER1,Buffer,1,3,JOL,User,-,"How likely are you to correctly recall the second item in the pair?|Type your response on a scale from 0-100 and then press Enter.",Study/JOL,BUFFER,,3935,,,1917,2522,,,,70,1
ShamaraConerly,3ybdl9xnku,"Mediated JOLs",1,11,2023-04-05T17:49:33+00:00,7.8520269393921,6,versionC_stim.csv,JOLVersion_Recog.csv,"JOL Recog",JOL3,TREE,SYRUP,Study1,M,11,39,JOL,User,-,"How likely are you to correctly recall the second item in the pair?|Type your response on a scale from 0-100 and then press Enter.",Study/JOL,"Study Phase",,7626,,,6659,6815,,,,45,1
ShamaraConerly,3ybdl9xnku,"Mediated JOLs",1,12,2023-04-05T17:49:38+00:00,4.5130469799042,6,versionC_stim.csv,JOLVersion_Recog.csv,"JOL Recog",JOL3,SCALP,HEAD,Study1,F,23,11,JOL,User,-,"How likely are you to correctly recall the second item in the pair?|Type your response on a scale from 0-100 and then press Enter.",Study/JOL,"Study Phase",,4303,,,3114,3641,,,,99,1
ShamaraConerly,3ybdl9xnku,"Mediated JOLs",1,13,2023-04-05T17:49:43+00:00,5.4885561466217,6,versionC_stim.csv,JOLVersion_Recog.csv,"JOL Recog",JOL3,NAP,SLEEP,Study1,F,29,48,JOL,User,-,"How likely are you to correctly recall the second item in the pair?|Type your response on a scale from 0-100 and then press Enter.",Study/JOL,"Study Phase",,5274,,,3215,4147,,,,100,1
ShamaraConerly,3ybdl9xnku,"Mediated JOLs",1,14,2023-04-05T17:49:52+00:00,8.3812799453735,6,versionC_stim.csv,JOLVersion_Recog.csv,"JOL Recog",JOL3,VEHICLE,CHARM,Study1,U,40,18,JOL,User,-,"How likely are you to correctly recall the second item in the pair?|Type your response on a scale from 0-100 and then press Enter.",Study/JOL,"Study Phase",,8166,,,6204,7669,,,,78,1
ShamaraConerly,3ybdl9xnku,"Mediated JOLs",1,15,2023-04-05T17:49:56+00:00,4.3071110248566,6,versionC_stim.csv,JOLVersion_Recog.csv,"JOL Recog",JOL3,BIRTHDAY,PIE,Study1,M,9,49,JOL,User,-,"How likely are you to correctly recall the second item in the pair?|Type your response on a scale from 0-100 and then press Enter.",Study/JOL,"Study Phase",,4080,,,3127,3300,,,,21,1
ShamaraConerly,3ybdl9xnku,"Mediated JOLs",1,16,2023-04-05T17:50:01+00:00,4.969743013382,6,versionC_stim.csv,JOLVersion_Recog.csv,"JOL Recog",JOL3,LISTEN,FICTION,Study1,U,44,33,JOL,User,-,"How likely are you to correctly recall the second item in the pair?|Type your response on a scale from 0-100 and then press Enter.",Study/JOL,"Study Phase",,4730,,,3648,4241,,,,40,1
ShamaraConerly,3ybdl9xnku,"Mediated JOLs",1,17,2023-04-05T17:50:05+00:00,3.9080929756165,6,versionC_stim.csv,JOLVersion_Recog.csv,"JOL Recog",JOL3,CREDIT,CARD,Study1,F,33,30,JOL,User,-,"How likely are you to correctly recall the second item in the pair?|Type your response on a scale from 0-100 and then press Enter.",Study/JOL,"Study Phase",,3695,,,2517,3299,,,,100,1
ShamaraConerly,3ybdl9xnku,"Mediated JOLs",1,18,2023-04-05T17:50:10+00:00,4.7038900852203,6,versionC_stim.csv,JOLVersion_Recog.csv,"JOL Recog",JOL3,MIRROR,MAROON,Study1,U,36,25,JOL,User,-,"How likely are you to correctly recall the second item in the pair?|Type your response on a scale from 0-100 and then press Enter.",Study/JOL,"Study Phase",,4492,,,3557,4039,,,,60,1
ShamaraConerly,3ybdl9xnku,"Mediated JOLs",1,19,2023-04-05T17:50:21+00:00,11.393540859222,6,versionC_stim.csv,JOLVersion_Recog.csv,"JOL Recog",JOL3,KEYS,ROD,Study1,U,45,14,JOL,User,-,"How likely are you to correctly recall the second item in the pair?|Type your response on a scale from 0-100 and then press Enter.",Study/JOL,"Study Phase",,11125,,,9957,10694,,,,40,1
ShamaraConerly,3ybdl9xnku,"Mediated JOLs",1,20,2023-04-05T17:50:25+00:00,4.5526461601257,6,versionC_stim.csv,JOLVersion_Recog.csv,"JOL Recog",JOL3,DAY,DARK,Study1,M,18,9,JOL,User,-,"How likely are you to correctly recall the second item in the pair?|Type your response on a scale from 0-100 and then press Enter.",Study/JOL,"Study Phase",,4342,,,3179,3903,,,,60,1
ShamaraConerly,3ybdl9xnku,"Mediated JOLs",1,21,2023-04-05T17:50:30+00:00,4.7560179233551,6,versionC_stim.csv,JOLVersion_Recog.csv,"JOL Recog",JOL3,LITTER,TRASH,Study1,F,21,47,JOL,User,-,"How likely are you to correctly recall the second item in the pair?|Type your response on a scale from 0-100 and then press Enter.",Study/JOL,"Study Phase",,4500,,,3802,3980,,,,89,1
ShamaraConerly,3ybdl9xnku,"Mediated JOLs",1,22,2023-04-05T17:50:35+00:00,4.9323909282684,6,versionC_stim.csv,JOLVersion_Recog.csv,"JOL Recog",JOL3,HARD,COTTON,Study1,M,20,32,JOL,User,-,"How likely are you to correctly recall the second item in the pair?|Type your response on a scale from 0-100 and then press Enter.",Study/JOL,"Study Phase",,4709,,,4023,4186,,,,32,1
ShamaraConerly,3ybdl9xnku,"Mediated JOLs",1,23,2023-04-05T17:50:45+00:00,9.605318069458,6,versionC_stim.csv,JOLVersion_Recog.csv,"JOL Recog",JOL3,SWAN,BIRD,Study1,F,26,7,JOL,User,-,"How likely are you to correctly recall the second item in the pair?|Type your response on a scale from 0-100 and then press Enter.",Study/JOL,"Study Phase",,9219,,,2842,8596,,,,50,1
ShamaraConerly,3ybdl9xnku,"Mediated JOLs",1,24,2023-04-05T17:50:50+00:00,4.8771169185638,6,versionC_stim.csv,JOLVersion_Recog.csv,"JOL Recog",JOL3,CRACKLE,ELECTION,Study1,U,39,40,JOL,User,-,"How likely are you to correctly recall the second item in the pair?|Type your response on a scale from 0-100 and then press Enter.",Study/JOL,"Study Phase",,4665,,,3812,3980,,,,12,1
ShamaraConerly,3ybdl9xnku,"Mediated JOLs",1,25,2023-04-05T17:50:57+00:00,7.1025829315186,6,versionC_stim.csv,JOLVersion_Recog.csv,"JOL Recog",JOL3,HORSE,WHEEL,Study1,M,14,22,JOL,User,-,"How likely are you to correctly recall the second item in the pair?|Type your response on a scale from 0-100 and then press Enter.",Study/JOL,"Study Phase",,6866,,,6050,6212,,,,23,1
ShamaraConerly,3ybdl9xnku,"Mediated JOLs",1,26,2023-04-05T17:51:00+00:00,3.6955950260162,6,versionC_stim.csv,JOLVersion_Recog.csv,"JOL Recog",JOL3,CEILING,CARPET,Study1,M,15,42,JOL,User,-,"How likely are you to correctly recall the second item in the pair?|Type your response on a scale from 0-100 and then press Enter.",Study/JOL,"Study Phase",,3484,,,2909,3078,,,,87,1
ShamaraConerly,3ybdl9xnku,"Mediated JOLs",1,27,2023-04-05T17:51:05+00:00,4.8472950458527,6,versionC_stim.csv,JOLVersion_Recog.csv,"JOL Recog",JOL3,AFFECTION,LOVE,Study1,F,31,21,JOL,User,-,"How likely are you to correctly recall the second item in the pair?|Type your response on a scale from 0-100 and then press Enter.",Study/JOL,"Study Phase",,4607,,,3654,4149,,,,70,1
ShamaraConerly,3ybdl9xnku,"Mediated JOLs",1,28,2023-04-05T17:51:10+00:00,4.7996950149536,6,versionC_stim.csv,JOLVersion_Recog.csv,"JOL Recog",JOL3,MULE,DONKEY,Study1,F,30,17,JOL,User,-,"How likely are you to correctly recall the second item in the pair?|Type your response on a scale from 0-100 and then press Enter.",Study/JOL,"Study Phase",,4589,,,3736,3875,,,,12,1
ShamaraConerly,3ybdl9xnku,"Mediated JOLs",1,29,2023-04-05T17:51:15+00:00,5.0145039558411,6,versionC_stim.csv,JOLVersion_Recog.csv,"JOL Recog",JOL3,BAT,BOUNCE,Study1,M,12,51,JOL,User,-,"How likely are you to correctly recall the second item in the pair?|Type your response on a scale from 0-100 and then press Enter.",Study/JOL,"Study Phase",,4806,,,3786,4089,,,,74,1
ShamaraConerly,3ybdl9xnku,"Mediated JOLs",1,30,2023-04-05T17:51:19+00:00,4.2451269626617,6,versionC_stim.csv,JOLVersion_Recog.csv,"JOL Recog",JOL3,STRETCH,CLOTH,Study1,U,37,37,JOL,User,-,"How likely are you to correctly recall the second item in the pair?|Type your response on a scale from 0-100 and then press Enter.",Study/JOL,"Study Phase",,4031,,,3190,3368,,,,32,1
ShamaraConerly,3ybdl9xnku,"Mediated JOLs",1,31,2023-04-05T17:51:26+00:00,6.2881610393524,6,versionC_stim.csv,JOLVersion_Recog.csv,"JOL Recog",JOL3,ROUGH,SILK,Study1,M,10,34,JOL,User,-,"How likely are you to correctly recall the second item in the pair?|Type your response on a scale from 0-100 and then press Enter.",Study/JOL,"Study Phase",,6047,,,5221,5356,,,,11,1
ShamaraConerly,3ybdl9xnku,"Mediated JOLs",1,32,2023-04-05T17:51:30+00:00,4.7212820053101,6,versionC_stim.csv,JOLVersion_Recog.csv,"JOL Recog",JOL3,TOOTH,HAIR,Study1,M,19,50,JOL,User,-,"How likely are you to correctly recall the second item in the pair?|Type your response on a scale from 0-100 and then press Enter.",Study/JOL,"Study Phase",,4481,,,3701,3790,,,,98,1
ShamaraConerly,3ybdl9xnku,"Mediated JOLs",1,33,2023-04-05T17:51:35+00:00,4.8796329498291,6,versionC_stim.csv,JOLVersion_Recog.csv,"JOL Recog",JOL3,ORCHID,FLOWER,Study1,F,34,29,JOL,User,-,"How likely are you to correctly recall the second item in the pair?|Type your response on a scale from 0-100 and then press Enter.",Study/JOL,"Study Phase",,4468,,,3566,3776,,,,75,1
ShamaraConerly,3ybdl9xnku,"Mediated JOLs",1,34,2023-04-05T17:51:41+00:00,5.5040981769562,6,versionC_stim.csv,JOLVersion_Recog.csv,"JOL Recog",JOL3,TUNA,FISH,Study1,F,35,13,JOL,User,-,"How likely are you to correctly recall the second item in the pair?|Type your response on a scale from 0-100 and then press Enter.",Study/JOL,"Study Phase",,5295,,,4371,4522,,,,99,1
ShamaraConerly,3ybdl9xnku,"Mediated JOLs",1,35,2023-04-05T17:51:46+00:00,5.3276150226593,6,versionC_stim.csv,JOLVersion_Recog.csv,"JOL Recog",JOL3,CAKE,HAND,Study1,U,49,38,JOL,User,-,"How likely are you to correctly recall the second item in the pair?|Type your response on a scale from 0-100 and then press Enter.",Study/JOL,"Study Phase",,5117,,,3953,4430,,,,51,1
ShamaraConerly,3ybdl9xnku,"Mediated JOLs",1,36,2023-04-05T17:51:51+00:00,4.8177669048309,6,versionC_stim.csv,JOLVersion_Recog.csv,"JOL Recog",JOL3,WAR,QUIET,Study1,M,8,28,JOL,User,-,"How likely are you to correctly recall the second item in the pair?|Type your response on a scale from 0-100 and then press Enter.",Study/JOL,"Study Phase",,4611,,,3777,3933,,,,34,1
ShamaraConerly,3ybdl9xnku,"Mediated JOLs",1,37,2023-04-05T17:51:55+00:00,4.5849270820618,6,versionC_stim.csv,JOLVersion_Recog.csv,"JOL Recog",JOL3,WAGE,MONEY,Study1,F,22,31,JOL,User,-,"How likely are you to correctly recall the second item in the pair?|Type your response on a scale from 0-100 and then press Enter.",Study/JOL,"Study Phase",,4369,,,3599,3981,,,,70,1
ShamaraConerly,3ybdl9xnku,"Mediated JOLs",1,38,2023-04-05T17:52:00+00:00,4.4495680332184,6,versionC_stim.csv,JOLVersion_Recog.csv,"JOL Recog",JOL3,BEACH,BOX,Study1,M,7,20,JOL,User,-,"How likely are you to correctly recall the second item in the pair?|Type your response on a scale from 0-100 and then press Enter.",Study/JOL,"Study Phase",,4198,,,3224,3440,,,,31,1
ShamaraConerly,3ybdl9xnku,"Mediated JOLs",1,39,2023-04-05T17:52:04+00:00,4.0852909088135,6,versionC_stim.csv,JOLVersion_Recog.csv,"JOL Recog",JOL3,MAZE,PHONE,Study1,U,42,8,JOL,User,-,"How likely are you to correctly recall the second item in the pair?|Type your response on a scale from 0-100 and then press Enter.",Study/JOL,"Study Phase",,3837,,,3060,3224,,,,54,1
ShamaraConerly,3ybdl9xnku,"Mediated JOLs",1,40,2023-04-05T17:52:10+00:00,6.1999690532684,6,versionC_stim.csv,JOLVersion_Recog.csv,"JOL Recog",JOL3,WEDDING,FINGER,Study1,M,17,36,JOL,User,-,"How likely are you to correctly recall the second item in the pair?|Type your response on a scale from 0-100 and then press Enter.",Study/JOL,"Study Phase",,5972,,,4480,5289,,,,78,1
ShamaraConerly,3ybdl9xnku,"Mediated JOLs",1,41,2023-04-05T17:52:14+00:00,4.1466460227966,6,versionC_stim.csv,JOLVersion_Recog.csv,"JOL Recog",JOL3,HYGIENE,CLEAN,Study1,F,28,35,JOL,User,-,"How likely are you to correctly recall the second item in the pair?|Type your response on a scale from 0-100 and then press Enter.",Study/JOL,"Study Phase",,3927,,,3168,3344,,,,98,1
ShamaraConerly,3ybdl9xnku,"Mediated JOLs",1,42,2023-04-05T17:52:19+00:00,4.7604649066925,6,versionC_stim.csv,JOLVersion_Recog.csv,"JOL Recog",JOL3,LION,STRIPES,Study1,M,6,43,JOL,User,-,"How likely are you to correctly recall the second item in the pair?|Type your response on a scale from 0-100 and then press Enter.",Study/JOL,"Study Phase",,4556,,,3789,3937,,,,76,1
ShamaraConerly,3ybdl9xnku,"Mediated JOLs",1,43,2023-04-05T17:52:29+00:00,10.12665104866,6,versionC_stim.csv,JOLVersion_Recog.csv,"JOL Recog",JOL3,WORD,SENTENCE,Study1,F,27,19,JOL,User,-,"How likely are you to correctly recall the second item in the pair?|Type your response on a scale from 0-100 and then press Enter.",Study/JOL,"Study Phase",,9915,,,8985,9151,,,,96,1
ShamaraConerly,3ybdl9xnku,"Mediated JOLs",1,44,2023-04-05T17:52:34+00:00,4.8607120513916,6,versionC_stim.csv,JOLVersion_Recog.csv,"JOL Recog",JOL3,MEAT,KEYS,Study1,U,41,12,JOL,User,-,"How likely are you to correctly recall the second item in the pair?|Type your response on a scale from 0-100 and then press Enter.",Study/JOL,"Study Phase",,4654,,,3692,3882,,,,43,1
ShamaraConerly,3ybdl9xnku,"Mediated JOLs",1,45,2023-04-05T17:52:39+00:00,5.3697919845581,6,versionC_stim.csv,JOLVersion_Recog.csv,"JOL Recog",JOL3,FUZZY,BANG,Study1,U,50,27,JOL,User,-,"How likely are you to correctly recall the second item in the pair?|Type your response on a scale from 0-100 and then press Enter.",Study/JOL,"Study Phase",,5140,,,4305,4420,,,,33,1
ShamaraConerly,3ybdl9xnku,"Mediated JOLs",1,46,2023-04-05T17:52:45+00:00,5.3661818504333,6,versionC_stim.csv,JOLVersion_Recog.csv,"JOL Recog",JOL3,SOON,BELT,Study1,U,46,26,JOL,User,-,"How likely are you to correctly recall the second item in the pair?|Type your response on a scale from 0-100 and then press Enter.",Study/JOL,"Study Phase",,5157,,,4138,4443,,,,51,1
ShamaraConerly,3ybdl9xnku,"Mediated JOLs",1,47,2023-04-05T17:52:49+00:00,4.3356771469116,6,versionC_stim.csv,JOLVersion_Recog.csv,"JOL Recog",JOL3,CIRCLE,DANCE,Study1,M,13,10,JOL,User,-,"How likely are you to correctly recall the second item in the pair?|Type your response on a scale from 0-100 and then press Enter.",Study/JOL,"Study Phase",,4088,,,3143,3409,,,,84,1
ShamaraConerly,3ybdl9xnku,"Mediated JOLs",1,48,2023-04-05T17:52:54+00:00,4.5653159618378,6,versionC_stim.csv,JOLVersion_Recog.csv,"JOL Recog",JOL3,SHELL,SHAKE,Study1,U,43,46,JOL,User,-,"How likely are you to correctly recall the second item in the pair?|Type your response on a scale from 0-100 and then press Enter.",Study/JOL,"Study Phase",,4350,,,3480,3670,,,,53,1
ShamaraConerly,3ybdl9xnku,"Mediated JOLs",1,49,2023-04-05T17:52:58+00:00,4.4253430366516,6,versionC_stim.csv,JOLVersion_Recog.csv,"JOL Recog",JOL3,TEMPERATURE,MORNING,Study1,U,48,23,JOL,User,-,"How likely are you to correctly recall the second item in the pair?|Type your response on a scale from 0-100 and then press Enter.",Study/JOL,"Study Phase",,4214,,,3333,3524,,,,44,1
ShamaraConerly,3ybdl9xnku,"Mediated JOLs",1,50,2023-04-05T17:53:03+00:00,5.2870779037476,6,versionC_stim.csv,JOLVersion_Recog.csv,"JOL Recog",JOL3,SIP,DRINK,Study1,F,32,16,JOL,User,-,"How likely are you to correctly recall the second item in the pair?|Type your response on a scale from 0-100 and then press Enter.",Study/JOL,"Study Phase",,5071,,,4080,4313,,,,98,1
ShamaraConerly,3ybdl9xnku,"Mediated JOLs",1,51,2023-04-05T17:53:07+00:00,3.6544010639191,6,versionC_stim.csv,JOLVersion_Recog.csv,"JOL Recog",JOL3,GIVE,STEAK,Study1,U,38,45,JOL,User,-,"How likely are you to correctly recall the second item in the pair?|Type your response on a scale from 0-100 and then press Enter.",Study/JOL,"Study Phase",,3415,,,2713,2885,,,,89,1
ShamaraConerly,3ybdl9xnku,"Mediated JOLs",1,52,2023-04-05T17:53:11+00:00,4.3507778644562,6,versionC_stim.csv,JOLVersion_Recog.csv,"JOL Recog",JOL3,CRY,BOTTLE,Study1,M,16,24,JOL,User,-,"How likely are you to correctly recall the second item in the pair?|Type your response on a scale from 0-100 and then press Enter.",Study/JOL,"Study Phase",,4135,,,2632,3554,,,,100,1
ShamaraConerly,3ybdl9xnku,"Mediated JOLs",1,53,2023-04-05T17:53:16+00:00,4.9196081161499,6,versionC_stim.csv,JOLVersion_Recog.csv,"JOL Recog",JOL3,ROOT,PLANT,Study1,F,25,15,JOL,User,-,"How likely are you to correctly recall the second item in the pair?|Type your response on a scale from 0-100 and then press Enter.",Study/JOL,"Study Phase",,4712,,,3314,4144,,,,100,1
ShamaraConerly,3ybdl9xnku,"Mediated JOLs",1,54,2023-04-05T17:53:25+00:00,8.5250959396362,6,versionC_stim.csv,JOLVersion_Recog.csv,"JOL Recog",JOL3,MULE,DONKEY,Study1,F,24,41,JOL,User,-,"How likely are you to correctly recall the second item in the pair?|Type your response on a scale from 0-100 and then press Enter.",Study/JOL,"Study Phase",,8313,,,6381,6560,,,,76,1
ShamaraConerly,3ybdl9xnku,"Mediated JOLs",1,55,2023-04-05T17:53:33+00:00,7.596755027771,6,versionC_stim.csv,JOLVersion_Recog.csv,"JOL Recog",JOL3,SIGN,TICK,Study1,U,47,44,JOL,User,-,"How likely are you to correctly recall the second item in the pair?|Type your response on a scale from 0-100 and then press Enter.",Study/JOL,"Study Phase",,7364,,,6539,6702,,,,87,1
ShamaraConerly,3ybdl9xnku,"Mediated JOLs",1,56,2023-04-05T17:53:37+00:00,4.6672620773315,6,versionC_stim.csv,JOLVersion_Recog.csv,"JOL Recog",JOL3,SHERRIF,POLICE,BUFFER2,Buffer,52,56,JOL,User,-,"How likely are you to correctly recall the second item in the pair?|Type your response on a scale from 0-100 and then press Enter.",Study/JOL,BUFFER2,,4456,,,1709,2610,,,,100,1
ShamaraConerly,3ybdl9xnku,"Mediated JOLs",1,57,2023-04-05T17:53:43+00:00,6.2399170398712,6,versionC_stim.csv,JOLVersion_Recog.csv,"JOL Recog",JOL3,THING,STUFF,BUFFER2,Buffer,55,52,JOL,User,-,"How likely are you to correctly recall the second item in the pair?|Type your response on a scale from 0-100 and then press Enter.",Study/JOL,BUFFER2,,6023,,,3416,3577,,,,99,1
ShamaraConerly,3ybdl9xnku,"Mediated JOLs",1,58,2023-04-05T17:53:55+00:00,11.915868997574,6,versionC_stim.csv,JOLVersion_Recog.csv,"JOL Recog",JOL3,GEESE,GOOSE,BUFFER2,Buffer,51,55,JOL,User,-,"How likely are you to correctly recall the second item in the pair?|Type your response on a scale from 0-100 and then press Enter.",Study/JOL,BUFFER2,,11672,,,7285,7485,,,,76,1
ShamaraConerly,3ybdl9xnku,"Mediated JOLs",1,59,2023-04-05T17:53:59+00:00,4.1213359832764,6,versionC_stim.csv,JOLVersion_Recog.csv,"JOL Recog",JOL3,MALT,CHOCOLATE,BUFFER2,Buffer,53,54,JOL,User,-,"How likely are you to correctly recall the second item in the pair?|Type your response on a scale from 0-100 and then press Enter.",Study/JOL,BUFFER2,,3914,,,3078,3269,,,,87,1
ShamaraConerly,3ybdl9xnku,"Mediated JOLs",1,60,2023-04-05T17:54:51+00:00,51.116771936417,6,versionC_stim.csv,JOLVersion_Recog.csv,"JOL Recog",JOL3,MOON,SPACE,BUFFER2,Buffer,54,53,JOL,User,-,"How likely are you to correctly recall the second item in the pair?|Type your response on a scale from 0-100 and then press Enter.",Study/JOL,BUFFER2,,50892,,,49994,50183,,,,76,1
ShamaraConerly,3ybdl9xnku,"Mediated JOLs",1,61,2023-04-05T17:54:53+00:00,1.9520280361176,6,versionC_stim.csv,JOLVersion_Recog.csv,"JOL Recog",JOL3,,,,,,0,Instruct,User,-,"You have completed this section. Please press Enter.",Filler_Instruction,Instruct2,,1743,,,-1,-1,,,,,1
ShamaraConerly,3ybdl9xnku,"Mediated JOLs",1,62,2023-04-05T17:56:53+00:00,120.41923499107,6,versionC_stim.csv,JOLVersion_Recog.csv,"JOL Recog",JOL3,,,,,,0,FreeRecall,120,120,"Please list the 50 US states in alphabetical order. The task will automatically advance to the next screen after two minutes.",,Filler1,,120001,"alabama Alaska arizona Arkansas California colorado Connecticut Delaware florida Georgia hawaii Idaho Illinois Indiana iowa ",0,19234,119749,0,0,,,1
ShamaraConerly,3ybdl9xnku,"Mediated JOLs",1,63,2023-04-05T17:57:13+00:00,20.019630908966,6,versionC_stim.csv,JOLVersion_Recog.csv,"JOL Recog",JOL3,,,,,,0,Instruct,User,10,"Your memory will now be tested. You will be presented with a series of words that may or may not have previously been presented alongisde another word. If the word on the screen was previously studied, please select YES. If the word was not studied, select NO. PLEASE DO NOT SKIP ITEMS! Click next when you are ready to begin.",,Instruc7982154d,,19747,,,-1,-1,,,,,1
ShamaraConerly,3ybdl9xnku,"Mediated JOLs",1,64,2023-04-05T17:57:18+00:00,5.146674156189,6,versionC_stim.csv,JOLVersion_Recog.csv,"JOL Recog",JOL3,,THIGH,RECOG,CONTROL,68,65,Likert,User,1,"Was this item previously studied?",CONTROL,Recog,1::2,4765,NO,0,-1,-1,0,0,,,1
ShamaraConerly,3ybdl9xnku,"Mediated JOLs",1,65,2023-04-05T17:57:21+00:00,2.9662668704987,6,versionC_stim.csv,JOLVersion_Recog.csv,"JOL Recog",JOL3,,BOX,RECOG,Presented,103,94,Likert,User,1,"Was this item previously studied?",CONTROL,Recog,1::2,2730,NO,40,-1,-1,0,0,,,1
ShamaraConerly,3ybdl9xnku,"Mediated JOLs",1,66,2023-04-05T17:57:24+00:00,2.9998750686646,6,versionC_stim.csv,JOLVersion_Recog.csv,"JOL Recog",JOL3,,DRINK,RECOG,Presented,128,138,Likert,User,1,"Was this item previously studied?",PRESENTED,Recog,1::2,2773,YES,0,-1,-1,0,0,,,1
ShamaraConerly,3ybdl9xnku,"Mediated JOLs",1,67,2023-04-05T17:57:27+00:00,2.5877380371094,6,versionC_stim.csv,JOLVersion_Recog.csv,"JOL Recog",JOL3,,CARPET,RECOG,Presented,111,140,Likert,User,1,"Was this item previously studied?",PRESENTED,Recog,1::2,2370,NO,0,-1,-1,0,0,,,1
ShamaraConerly,3ybdl9xnku,"Mediated JOLs",1,68,2023-04-05T17:57:29+00:00,2.7269468307495,6,versionC_stim.csv,JOLVersion_Recog.csv,"JOL Recog",JOL3,,CLEAN,RECOG,Presented,124,121,Likert,User,1,"Was this item previously studied?",PRESENTED,Recog,1::2,2501,YES,25,-1,-1,0,0,,,1
ShamaraConerly,3ybdl9xnku,"Mediated JOLs",1,69,2023-04-05T17:57:33+00:00,3.1617209911346,6,versionC_stim.csv,JOLVersion_Recog.csv,"JOL Recog",JOL3,,FIGHT,RECOG,CONTROL,82,108,Likert,User,1,"Was this item previously studied?",PRESENTED,Recog,1::2,2914,YES,0,-1,-1,0,0,,,1
ShamaraConerly,3ybdl9xnku,"Mediated JOLs",1,70,2023-04-05T17:57:35+00:00,2.7829370498657,6,versionC_stim.csv,JOLVersion_Recog.csv,"JOL Recog",JOL3,,OUNCE,RECOG,CONTROL,98,76,Likert,User,1,"Was this item previously studied?",CONTROL,Recog,1::2,2573,NO,28.571428571429,-1,-1,0,0,,,1
ShamaraConerly,3ybdl9xnku,"Mediated JOLs",1,71,2023-04-05T17:57:38+00:00,2.4918241500854,6,versionC_stim.csv,JOLVersion_Recog.csv,"JOL Recog",JOL3,,DRINK,RECOG,CONTROL,63,130,Likert,User,1,"Was this item previously studied?",PRESENTED,Recog,1::2,2279,YES,0,-1,-1,0,0,,,1
ShamaraConerly,3ybdl9xnku,"Mediated JOLs",1,72,2023-04-05T17:57:41+00:00,3.2544679641724,6,versionC_stim.csv,JOLVersion_Recog.csv,"JOL Recog",JOL3,,CAR,RECOG,CONTROL,88,74,Likert,User,1,"Was this item previously studied?",CONTROL,Recog,1::2,3048,NO,0,-1,-1,0,0,,,1
ShamaraConerly,3ybdl9xnku,"Mediated JOLs",1,73,2023-04-05T17:57:44+00:00,2.6734409332275,6,versionC_stim.csv,JOLVersion_Recog.csv,"JOL Recog",JOL3,,LAWYER,RECOG,CONTROL,62,129,Likert,User,1,"Was this item previously studied?",PRESENTED,Recog,1::2,2440,NO,0,-1,-1,0,0,,,1
ShamaraConerly,3ybdl9xnku,"Mediated JOLs",1,74,2023-04-05T17:57:47+00:00,3.1294369697571,6,versionC_stim.csv,JOLVersion_Recog.csv,"JOL Recog",JOL3,,FLOWER,RECOG,Presented,130,92,Likert,User,1,"Was this item previously studied?",CONTROL,Recog,1::2,2917,YES,22.222222222222,-1,-1,0,0,,,1
ShamaraConerly,3ybdl9xnku,"Mediated JOLs",1,75,2023-04-05T17:57:50+00:00,2.6560840606689,6,versionC_stim.csv,JOLVersion_Recog.csv,"JOL Recog",JOL3,,BANG,RECOG,Presented,146,96,Likert,User,1,"Was this item previously studied?",CONTROL,Recog,1::2,2439,YES,0,-1,-1,0,0,,,1
ShamaraConerly,3ybdl9xnku,"Mediated JOLs",1,76,2023-04-05T17:57:54+00:00,4.4075930118561,6,versionC_stim.csv,JOLVersion_Recog.csv,"JOL Recog",JOL3,,BASEBALL,RECOG,CONTROL,80,85,Likert,User,1,"Was this item previously studied?",CONTROL,Recog,1::2,4141,NO,0,-1,-1,0,0,,,1
ShamaraConerly,3ybdl9xnku,"Mediated JOLs",1,77,2023-04-05T17:57:57+00:00,3.1662650108337,6,versionC_stim.csv,JOLVersion_Recog.csv,"JOL Recog",JOL3,,CLUTTER,RECOG,CONTROL,92,144,Likert,User,1,"Was this item previously studied?",PRESENTED,Recog,1::2,2959,NO,0,-1,-1,0,0,,,1
ShamaraConerly,3ybdl9xnku,"Mediated JOLs",1,78,2023-04-05T17:58:00+00:00,3.2690389156342,6,versionC_stim.csv,JOLVersion_Recog.csv,"JOL Recog",JOL3,,HAMMER,RECOG,CONTROL,74,111,Likert,User,1,"Was this item previously studied?",PRESENTED,Recog,1::2,3049,NO,0,-1,-1,0,0,,,1
ShamaraConerly,3ybdl9xnku,"Mediated JOLs",1,79,2023-04-05T17:58:04+00:00,3.5890331268311,6,versionC_stim.csv,JOLVersion_Recog.csv,"JOL Recog",JOL3,,SNOW,RECOG,CONTROL,57,123,Likert,User,1,"Was this item previously studied?",PRESENTED,Recog,1::2,3367,NO,66.666666666667,-1,-1,0,0,,,1
ShamaraConerly,3ybdl9xnku,"Mediated JOLs",1,80,2023-04-05T17:58:07+00:00,2.833132982254,6,versionC_stim.csv,JOLVersion_Recog.csv,"JOL Recog",JOL3,,COTTON,RECOG,Presented,116,103,Likert,User,1,"Was this item previously studied?",PRESENTED,Recog,1::2,2612,YES,0,-1,-1,0,0,,,1
ShamaraConerly,3ybdl9xnku,"Mediated JOLs",1,81,2023-04-05T17:58:09+00:00,2.6658790111542,6,versionC_stim.csv,JOLVersion_Recog.csv,"JOL Recog",JOL3,,HAIR,RECOG,Presented,115,71,Likert,User,1,"Was this item previously studied?",CONTROL,Recog,1::2,2447,NO,0,-1,-1,0,0,,,1
ShamaraConerly,3ybdl9xnku,"Mediated JOLs",1,82,2023-04-05T17:58:13+00:00,3.8867650032043,6,versionC_stim.csv,JOLVersion_Recog.csv,"JOL Recog",JOL3,,PAPER,RECOG,CONTROL,78,135,Likert,User,1,"Was this item previously studied?",PRESENTED,Recog,1::2,3642,NO,0,-1,-1,0,0,,,1
ShamaraConerly,3ybdl9xnku,"Mediated JOLs",1,83,2023-04-05T17:58:16+00:00,2.3653140068054,6,versionC_stim.csv,JOLVersion_Recog.csv,"JOL Recog",JOL3,,TRASH,RECOG,Presented,117,112,Likert,User,1,"Was this item previously studied?",PRESENTED,Recog,1::2,2150,YES,25,-1,-1,0,0,,,1
ShamaraConerly,3ybdl9xnku,"Mediated JOLs",1,84,2023-04-05T17:58:19+00:00,2.9805119037628,6,versionC_stim.csv,JOLVersion_Recog.csv,"JOL Recog",JOL3,,DONKEY,RECOG,Presented,120,95,Likert,User,1,"Was this item previously studied?",CONTROL,Recog,1::2,2753,YES,22.222222222222,-1,-1,0,0,,,1
ShamaraConerly,3ybdl9xnku,"Mediated JOLs",1,85,2023-04-05T17:58:21+00:00,2.6599979400635,6,versionC_stim.csv,JOLVersion_Recog.csv,"JOL Recog",JOL3,,BASKET,RECOG,CONTROL,67,137,Likert,User,1,"Was this item previously studied?",PRESENTED,Recog,1::2,2445,NO,0,-1,-1,0,0,,,1
ShamaraConerly,3ybdl9xnku,"Mediated JOLs",1,86,2023-04-05T17:58:23+00:00,1.5446741580963,6,versionC_stim.csv,JOLVersion_Recog.csv,"JOL Recog",JOL3,,RIDDLE,RECOG,CONTROL,91,136,Likert,User,1,"Was this item previously studied?",PRESENTED,Recog,1::2,1325,NO,0,-1,-1,0,0,,,1
ShamaraConerly,3ybdl9xnku,"Mediated JOLs",1,87,2023-04-05T17:58:25+00:00,2.5973517894745,6,versionC_stim.csv,JOLVersion_Recog.csv,"JOL Recog",JOL3,,BOTTLE,RECOG,Presented,112,67,Likert,User,1,"Was this item previously studied?",CONTROL,Recog,1::2,2369,YES,22.222222222222,-1,-1,0,0,,,1
ShamaraConerly,3ybdl9xnku,"Mediated JOLs",1,88,2023-04-05T17:58:28+00:00,2.6562831401825,6,versionC_stim.csv,JOLVersion_Recog.csv,"JOL Recog",JOL3,,BUSINESS,RECOG,CONTROL,95,132,Likert,User,1,"Was this item previously studied?",PRESENTED,Recog,1::2,2439,NO,20,-1,-1,0,0,,,1
ShamaraConerly,3ybdl9xnku,"Mediated JOLs",1,89,2023-04-05T17:58:30+00:00,1.9107940196991,6,versionC_stim.csv,JOLVersion_Recog.csv,"JOL Recog",JOL3,,SACK,RECOG,CONTROL,93,69,Likert,User,1,"Was this item previously studied?",CONTROL,Recog,1::2,1692,NO,0,-1,-1,0,0,,,1
ShamaraConerly,3ybdl9xnku,"Mediated JOLs",1,90,2023-04-05T17:58:33+00:00,3.1985249519348,6,versionC_stim.csv,JOLVersion_Recog.csv,"JOL Recog",JOL3,,COLLAR,RECOG,CONTROL,59,113,Likert,User,1,"Was this item previously studied?",PRESENTED,Recog,1::2,2976,NO,25,-1,-1,0,0,,,1
ShamaraConerly,3ybdl9xnku,"Mediated JOLs",1,91,2023-04-05T17:58:37+00:00,3.3115680217743,6,versionC_stim.csv,JOLVersion_Recog.csv,"JOL Recog",JOL3,,CUT,RECOG,CONTROL,73,84,Likert,User,1,"Was this item previously studied?",CONTROL,Recog,1::2,3074,YES,0,-1,-1,0,0,,,1
ShamaraConerly,3ybdl9xnku,"Mediated JOLs",1,92,2023-04-05T17:58:39+00:00,2.7868759632111,6,versionC_stim.csv,JOLVersion_Recog.csv,"JOL Recog",JOL3,,BIRD,RECOG,Presented,122,125,Likert,User,1,"Was this item previously studied?",PRESENTED,Recog,1::2,2578,YES,0,-1,-1,0,0,,,1
ShamaraConerly,3ybdl9xnku,"Mediated JOLs",1,93,2023-04-05T17:58:42+00:00,2.8949899673462,6,versionC_stim.csv,JOLVersion_Recog.csv,"JOL Recog",JOL3,,LOVE,RECOG,Presented,127,60,Likert,User,1,"Was this item previously studied?",CONTROL,Recog,1::2,2665,YES,28.571428571429,-1,-1,0,0,,,1
ShamaraConerly,3ybdl9xnku,"Mediated JOLs",1,94,2023-04-05T17:58:45+00:00,2.4974961280823,6,versionC_stim.csv,JOLVersion_Recog.csv,"JOL Recog",JOL3,,ACCIDENT,RECOG,CONTROL,90,62,Likert,User,1,"Was this item previously studied?",CONTROL,Recog,1::2,2277,NO,20,-1,-1,0,0,,,1
ShamaraConerly,3ybdl9xnku,"Mediated JOLs",1,95,2023-04-05T17:58:47+00:00,2.6006238460541,6,versionC_stim.csv,JOLVersion_Recog.csv,"JOL Recog",JOL3,,ROD,RECOG,Presented,141,145,Likert,User,1,"Was this item previously studied?",PRESENTED,Recog,1::2,2352,NO,40,-1,-1,0,0,,,1
ShamaraConerly,3ybdl9xnku,"Mediated JOLs",1,96,2023-04-05T17:58:57+00:00,10.127068042755,6,versionC_stim.csv,JOLVersion_Recog.csv,"JOL Recog",JOL3,,FICTION,RECOG,Presented,140,78,Likert,User,1,"Was this item previously studied?",CONTROL,Recog,1::2,9909,NO,22.222222222222,-1,-1,0,0,,,1
ShamaraConerly,3ybdl9xnku,"Mediated JOLs",1,97,2023-04-05T17:59:00+00:00,2.6666691303253,6,versionC_stim.csv,JOLVersion_Recog.csv,"JOL Recog",JOL3,,QUIET,RECOG,Presented,104,142,Likert,User,1,"Was this item previously studied?",PRESENTED,Recog,1::2,2455,YES,25,-1,-1,0,0,,,1
ShamaraConerly,3ybdl9xnku,"Mediated JOLs",1,98,2023-04-05T17:59:04+00:00,4.0247149467468,6,versionC_stim.csv,JOLVersion_Recog.csv,"JOL Recog",JOL3,,SEED,RECOG,CONTROL,65,86,Likert,User,1,"Was this item previously studied?",CONTROL,Recog,1::2,3797,YES,28.571428571429,-1,-1,0,0,,,1
ShamaraConerly,3ybdl9xnku,"Mediated JOLs",1,99,2023-04-05T17:59:07+00:00,2.9971139431,6,versionC_stim.csv,JOLVersion_Recog.csv,"JOL Recog",JOL3,,SMELL,RECOG,CONTROL,61,139,Likert,User,1,"Was this item previously studied?",PRESENTED,Recog,1::2,2770,NO,0,-1,-1,0,0,,,1
ShamaraConerly,3ybdl9xnku,"Mediated JOLs",1,100,2023-04-05T17:59:10+00:00,2.8050580024719,6,versionC_stim.csv,JOLVersion_Recog.csv,"JOL Recog",JOL3,,MORNING,RECOG,Presented,144,146,Likert,User,1,"Was this item previously studied?",PRESENTED,Recog,1::2,2591,NO,22.222222222222,-1,-1,0,0,,,1
ShamaraConerly,3ybdl9xnku,"Mediated JOLs",1,101,2023-04-05T17:59:13+00:00,2.7841160297394,6,versionC_stim.csv,JOLVersion_Recog.csv,"JOL Recog",JOL3,,PLANT,RECOG,CONTROL,72,105,Likert,User,1,"Was this item previously studied?",PRESENTED,Recog,1::2,2557,YES,0,-1,-1,0,0,,,1
ShamaraConerly,3ybdl9xnku,"Mediated JOLs",1,102,2023-04-05T17:59:15+00:00,2.284991979599,6,versionC_stim.csv,JOLVersion_Recog.csv,"JOL Recog",JOL3,,CLOTHES,RECOG,CONTROL,75,107,Likert,User,1,"Was this item previously studied?",PRESENTED,Recog,1::2,2068,YES,40,-1,-1,0,0,,,1
ShamaraConerly,3ybdl9xnku,"Mediated JOLs",1,103,2023-04-05T17:59:18+00:00,3.1480000019073,6,versionC_stim.csv,JOLVersion_Recog.csv,"JOL Recog",JOL3,,TOIL,RECOG,CONTROL,97,118,Likert,User,1,"Was this item previously studied?",PRESENTED,Recog,1::2,2930,NO,33.333333333333,-1,-1,0,0,,,1
ShamaraConerly,3ybdl9xnku,"Mediated JOLs",1,104,2023-04-05T17:59:22+00:00,3.4795939922333,6,versionC_stim.csv,JOLVersion_Recog.csv,"JOL Recog",JOL3,,CHILDREN,RECOG,CONTROL,100,122,Likert,User,1,"Was this item previously studied?",PRESENTED,Recog,1::2,3248,NO,20,-1,-1,0,0,,,1
ShamaraConerly,3ybdl9xnku,"Mediated JOLs",1,105,2023-04-05T17:59:24+00:00,2.3782639503479,6,versionC_stim.csv,JOLVersion_Recog.csv,"JOL Recog",JOL3,,BOUNCE,RECOG,Presented,108,128,Likert,User,1,"Was this item previously studied?",PRESENTED,Recog,1::2,2172,NO,25,-1,-1,0,0,,,1
ShamaraConerly,3ybdl9xnku,"Mediated JOLs",1,106,2023-04-05T17:59:27+00:00,2.5829081535339,6,versionC_stim.csv,JOLVersion_Recog.csv,"JOL Recog",JOL3,,BRONZE,RECOG,CONTROL,99,141,Likert,User,1,"Was this item previously studied?",PRESENTED,Recog,1::2,2364,NO,25,-1,-1,0,0,,,1
ShamaraConerly,3ybdl9xnku,"Mediated JOLs",1,107,2023-04-05T17:59:30+00:00,3.078094959259,6,versionC_stim.csv,JOLVersion_Recog.csv,"JOL Recog",JOL3,,PHONE,RECOG,Presented,138,109,Likert,User,1,"Was this item previously studied?",PRESENTED,Recog,1::2,2862,NO,28.571428571429,-1,-1,0,0,,,1
ShamaraConerly,3ybdl9xnku,"Mediated JOLs",1,108,2023-04-05T17:59:32+00:00,2.7466199398041,6,versionC_stim.csv,JOLVersion_Recog.csv,"JOL Recog",JOL3,,HAND,RECOG,Presented,145,115,Likert,User,1,"Was this item previously studied?",PRESENTED,Recog,1::2,2528,NO,33.333333333333,-1,-1,0,0,,,1
ShamaraConerly,3ybdl9xnku,"Mediated JOLs",1,109,2023-04-05T17:59:35+00:00,3.0212519168854,6,versionC_stim.csv,JOLVersion_Recog.csv,"JOL Recog",JOL3,,COLD,RECOG,CONTROL,83,58,Likert,User,1,"Was this item previously studied?",CONTROL,Recog,1::2,2697,NO,33.333333333333,-1,-1,0,0,,,1
ShamaraConerly,3ybdl9xnku,"Mediated JOLs",1,110,2023-04-05T17:59:38+00:00,2.648157119751,6,versionC_stim.csv,JOLVersion_Recog.csv,"JOL Recog",JOL3,,FINGER,RECOG,Presented,113,127,Likert,User,1,"Was this item previously studied?",PRESENTED,Recog,1::2,2431,YES,22.222222222222,-1,-1,0,0,,,1
ShamaraConerly,3ybdl9xnku,"Mediated JOLs",1,111,2023-04-05T17:59:41+00:00,2.8983860015869,6,versionC_stim.csv,JOLVersion_Recog.csv,"JOL Recog",JOL3,,MONEY,RECOG,Presented,118,61,Likert,User,1,"Was this item previously studied?",CONTROL,Recog,1::2,2636,NO,28.571428571429,-1,-1,0,0,,,1
ShamaraConerly,3ybdl9xnku,"Mediated JOLs",1,112,2023-04-05T17:59:43+00:00,2.3155689239502,6,versionC_stim.csv,JOLVersion_Recog.csv,"JOL Recog",JOL3,,PLANT,RECOG,Presented,121,88,Likert,User,1,"Was this item previously studied?",CONTROL,Recog,1::2,2089,YES,0,-1,-1,0,0,,,1
ShamaraConerly,3ybdl9xnku,"Mediated JOLs",1,113,2023-04-05T17:59:46+00:00,2.6501491069794,6,versionC_stim.csv,JOLVersion_Recog.csv,"JOL Recog",JOL3,,ISLAND,RECOG,CONTROL,60,72,Likert,User,1,"Was this item previously studied?",CONTROL,Recog,1::2,2439,NO,25,-1,-1,0,0,,,1
ShamaraConerly,3ybdl9xnku,"Mediated JOLs",1,114,2023-04-05T17:59:49+00:00,2.6959888935089,6,versionC_stim.csv,JOLVersion_Recog.csv,"JOL Recog",JOL3,,BELT,RECOG,Presented,142,120,Likert,User,1,"Was this item previously studied?",PRESENTED,Recog,1::2,2471,NO,0,-1,-1,0,0,,,1
ShamaraConerly,3ybdl9xnku,"Mediated JOLs",1,115,2023-04-05T17:59:51+00:00,2.467472076416,6,versionC_stim.csv,JOLVersion_Recog.csv,"JOL Recog",JOL3,,COW,RECOG,CONTROL,84,117,Likert,User,1,"Was this item previously studied?",PRESENTED,Recog,1::2,2260,NO,40,-1,-1,0,0,,,1
ShamaraConerly,3ybdl9xnku,"Mediated JOLs",1,116,2023-04-05T17:59:55+00:00,3.4654648303986,6,versionC_stim.csv,JOLVersion_Recog.csv,"JOL Recog",JOL3,,FIRE,RECOG,CONTROL,77,110,Likert,User,1,"Was this item previously studied?",PRESENTED,Recog,1::2,3252,NO,0,-1,-1,0,0,,,1
ShamaraConerly,3ybdl9xnku,"Mediated JOLs",1,117,2023-04-05T18:00:00+00:00,5.0454661846161,6,versionC_stim.csv,JOLVersion_Recog.csv,"JOL Recog",JOL3,,SILK,RECOG,Presented,106,75,Likert,User,1,"Was this item previously studied?",CONTROL,Recog,1::2,4803,YES,28.571428571429,-1,-1,0,0,,,1
ShamaraConerly,3ybdl9xnku,"Mediated JOLs",1,118,2023-04-05T18:00:02+00:00,2.7667398452759,6,versionC_stim.csv,JOLVersion_Recog.csv,"JOL Recog",JOL3,,MUSCLE,RECOG,CONTROL,71,99,Likert,User,1,"Was this item previously studied?",CONTROL,Recog,1::2,2542,NO,0,-1,-1,0,0,,,1
ShamaraConerly,3ybdl9xnku,"Mediated JOLs",1,119,2023-04-05T18:00:06+00:00,3.2232940196991,6,versionC_stim.csv,JOLVersion_Recog.csv,"JOL Recog",JOL3,,SYRUP,RECOG,Presented,107,83,Likert,User,1,"Was this item previously studied?",CONTROL,Recog,1::2,2949,YES,25,-1,-1,0,0,,,1
ShamaraConerly,3ybdl9xnku,"Mediated JOLs",1,120,2023-04-05T18:00:08+00:00,2.7257781028748,6,versionC_stim.csv,JOLVersion_Recog.csv,"JOL Recog",JOL3,,SMELL,RECOG,CONTROL,79,133,Likert,User,1,"Was this item previously studied?",PRESENTED,Recog,1::2,2480,YES,25,-1,-1,0,0,,,1
ShamaraConerly,3ybdl9xnku,"Mediated JOLs",1,121,2023-04-05T18:00:11+00:00,2.8854539394379,6,versionC_stim.csv,JOLVersion_Recog.csv,"JOL Recog",JOL3,,KEYS,RECOG,Presented,137,64,Likert,User,1,"Was this item previously studied?",CONTROL,Recog,1::2,2671,NO,0,-1,-1,0,0,,,1
ShamaraConerly,3ybdl9xnku,"Mediated JOLs",1,122,2023-04-05T18:00:14+00:00,2.6532161235809,6,versionC_stim.csv,JOLVersion_Recog.csv,"JOL Recog",JOL3,,DARK,RECOG,Presented,114,100,Likert,User,1,"Was this item previously studied?",CONTROL,Recog,1::2,2427,YES,0,-1,-1,0,0,,,1
ShamaraConerly,3ybdl9xnku,"Mediated JOLs",1,123,2023-04-05T18:00:18+00:00,3.7315118312836,6,versionC_stim.csv,JOLVersion_Recog.csv,"JOL Recog",JOL3,,STOP,RECOG,CONTROL,58,97,Likert,User,1,"Was this item previously studied?",CONTROL,Recog,1::2,3516,NO,33.333333333333,-1,-1,0,0,,,1
ShamaraConerly,3ybdl9xnku,"Mediated JOLs",1,124,2023-04-05T18:00:21+00:00,2.9142241477966,6,versionC_stim.csv,JOLVersion_Recog.csv,"JOL Recog",JOL3,,CHARM,RECOG,Presented,136,124,Likert,User,1,"Was this item previously studied?",PRESENTED,Recog,1::2,2677,YES,0,-1,-1,0,0,,,1
ShamaraConerly,3ybdl9xnku,"Mediated JOLs",1,125,2023-04-05T18:00:23+00:00,2.4967858791351,6,versionC_stim.csv,JOLVersion_Recog.csv,"JOL Recog",JOL3,,VASE,RECOG,CONTROL,87,114,Likert,User,1,"Was this item previously studied?",PRESENTED,Recog,1::2,2280,NO,0,-1,-1,0,0,,,1
ShamaraConerly,3ybdl9xnku,"Mediated JOLs",1,126,2023-04-05T18:00:26+00:00,2.9892530441284,6,versionC_stim.csv,JOLVersion_Recog.csv,"JOL Recog",JOL3,,STRIPES,RECOG,Presented,102,104,Likert,User,1,"Was this item previously studied?",PRESENTED,Recog,1::2,2762,YES,40,-1,-1,0,0,,,1
ShamaraConerly,3ybdl9xnku,"Mediated JOLs",1,127,2023-04-05T18:00:29+00:00,2.7098639011383,6,versionC_stim.csv,JOLVersion_Recog.csv,"JOL Recog",JOL3,,TICK,RECOG,Presented,143,126,Likert,User,1,"Was this item previously studied?",PRESENTED,Recog,1::2,2503,NO,0,-1,-1,0,0,,,1
ShamaraConerly,3ybdl9xnku,"Mediated JOLs",1,128,2023-04-05T18:00:31+00:00,2.7252101898193,6,versionC_stim.csv,JOLVersion_Recog.csv,"JOL Recog",JOL3,,FEATHER,RECOG,CONTROL,64,131,Likert,User,1,"Was this item previously studied?",PRESENTED,Recog,1::2,2514,YES,20,-1,-1,0,0,,,1
ShamaraConerly,3ybdl9xnku,"Mediated JOLs",1,129,2023-04-05T18:00:34+00:00,2.9363448619843,6,versionC_stim.csv,JOLVersion_Recog.csv,"JOL Recog",JOL3,,WHEEL,RECOG,Presented,110,91,Likert,User,1,"Was this item previously studied?",CONTROL,Recog,1::2,2679,NO,0,-1,-1,0,0,,,1
ShamaraConerly,3ybdl9xnku,"Mediated JOLs",1,130,2023-04-05T18:00:37+00:00,2.852616071701,6,versionC_stim.csv,JOLVersion_Recog.csv,"JOL Recog",JOL3,,ELECTION,RECOG,Presented,135,79,Likert,User,1,"Was this item previously studied?",CONTROL,Recog,1::2,2637,YES,18.181818181818,-1,-1,0,0,,,1
ShamaraConerly,3ybdl9xnku,"Mediated JOLs",1,131,2023-04-05T18:00:40+00:00,3.1696710586548,6,versionC_stim.csv,JOLVersion_Recog.csv,"JOL Recog",JOL3,,STING,RECOG,CONTROL,81,90,Likert,User,1,"Was this item previously studied?",CONTROL,Recog,1::2,2941,NO,28.571428571429,-1,-1,0,0,,,1
ShamaraConerly,3ybdl9xnku,"Mediated JOLs",1,132,2023-04-05T18:00:44+00:00,3.7662808895111,6,versionC_stim.csv,JOLVersion_Recog.csv,"JOL Recog",JOL3,,STEAK,RECOG,Presented,134,66,Likert,User,1,"Was this item previously studied?",CONTROL,Recog,1::2,3548,NO,0,-1,-1,0,0,,,1
ShamaraConerly,3ybdl9xnku,"Mediated JOLs",1,133,2023-04-05T18:00:48+00:00,3.6128380298615,6,versionC_stim.csv,JOLVersion_Recog.csv,"JOL Recog",JOL3,,CLOTH,RECOG,Presented,133,80,Likert,User,1,"Was this item previously studied?",CONTROL,Recog,1::2,3397,YES,0,-1,-1,0,0,,,1
ShamaraConerly,3ybdl9xnku,"Mediated JOLs",1,134,2023-04-05T18:00:50+00:00,1.6843459606171,6,versionC_stim.csv,JOLVersion_Recog.csv,"JOL Recog",JOL3,,FISH,RECOG,Presented,131,143,Likert,User,1,"Was this item previously studied?",PRESENTED,Recog,1::2,1466,YES,28.571428571429,-1,-1,0,0,,,1
ShamaraConerly,3ybdl9xnku,"Mediated JOLs",1,135,2023-04-05T18:00:52+00:00,2.8165919780731,6,versionC_stim.csv,JOLVersion_Recog.csv,"JOL Recog",JOL3,,BUG,RECOG,CONTROL,85,63,Likert,User,1,"Was this item previously studied?",CONTROL,Recog,1::2,2602,NO,0,-1,-1,0,0,,,1
ShamaraConerly,3ybdl9xnku,"Mediated JOLs",1,136,2023-04-05T18:00:54+00:00,2.035227060318,6,versionC_stim.csv,JOLVersion_Recog.csv,"JOL Recog",JOL3,,WOLF,RECOG,CONTROL,89,59,Likert,User,1,"Was this item previously studied?",CONTROL,Recog,1::2,1807,NO,33.333333333333,-1,-1,0,0,,,1
ShamaraConerly,3ybdl9xnku,"Mediated JOLs",1,137,2023-04-05T18:00:56+00:00,1.4010400772095,6,versionC_stim.csv,JOLVersion_Recog.csv,"JOL Recog",JOL3,,HIDE,RECOG,CONTROL,96,116,Likert,User,1,"Was this item previously studied?",PRESENTED,Recog,1::2,1192,NO,0,-1,-1,0,0,,,1
ShamaraConerly,3ybdl9xnku,"Mediated JOLs",1,138,2023-04-05T18:00:58+00:00,1.8113198280334,6,versionC_stim.csv,JOLVersion_Recog.csv,"JOL Recog",JOL3,,RED,RECOG,CONTROL,76,57,Likert,User,1,"Was this item previously studied?",CONTROL,Recog,1::2,1600,NO,0,-1,-1,0,0,,,1
ShamaraConerly,3ybdl9xnku,"Mediated JOLs",1,139,2023-04-05T18:01:00+00:00,2.4888081550598,6,versionC_stim.csv,JOLVersion_Recog.csv,"JOL Recog",JOL3,,DONKEY,RECOG,Presented,126,134,Likert,User,1,"Was this item previously studied?",PRESENTED,Recog,1::2,2272,YES,22.222222222222,-1,-1,0,0,,,1
ShamaraConerly,3ybdl9xnku,"Mediated JOLs",1,140,2023-04-05T18:01:02+00:00,1.8420519828796,6,versionC_stim.csv,JOLVersion_Recog.csv,"JOL Recog",JOL3,,PEAK,RECOG,CONTROL,69,68,Likert,User,1,"Was this item previously studied?",CONTROL,Recog,1::2,1631,YES,28.571428571429,-1,-1,0,0,,,1
ShamaraConerly,3ybdl9xnku,"Mediated JOLs",1,141,2023-04-05T18:01:03+00:00,1.4675209522247,6,versionC_stim.csv,JOLVersion_Recog.csv,"JOL Recog",JOL3,,SHAKE,RECOG,Presented,139,70,Likert,User,1,"Was this item previously studied?",CONTROL,Recog,1::2,1256,YES,25,-1,-1,0,0,,,1
ShamaraConerly,3ybdl9xnku,"Mediated JOLs",1,142,2023-04-05T18:01:06+00:00,2.5826990604401,6,versionC_stim.csv,JOLVersion_Recog.csv,"JOL Recog",JOL3,,HORN,RECOG,CONTROL,94,87,Likert,User,1,"Was this item previously studied?",CONTROL,Recog,1::2,2368,NO,33.333333333333,-1,-1,0,0,,,1
ShamaraConerly,3ybdl9xnku,"Mediated JOLs",1,143,2023-04-05T18:01:09+00:00,3.3458068370819,6,versionC_stim.csv,JOLVersion_Recog.csv,"JOL Recog",JOL3,,SLEEP,RECOG,Presented,125,77,Likert,User,1,"Was this item previously studied?",CONTROL,Recog,1::2,3123,YES,25,-1,-1,0,0,,,1
ShamaraConerly,3ybdl9xnku,"Mediated JOLs",1,144,2023-04-05T18:01:13+00:00,4.0993740558624,6,versionC_stim.csv,JOLVersion_Recog.csv,"JOL Recog",JOL3,,CARD,RECOG,Presented,129,81,Likert,User,1,"Was this item previously studied?",CONTROL,Recog,1::2,3884,NO,0,-1,-1,0,0,,,1
ShamaraConerly,3ybdl9xnku,"Mediated JOLs",1,145,2023-04-05T18:01:16+00:00,2.9038081169128,6,versionC_stim.csv,JOLVersion_Recog.csv,"JOL Recog",JOL3,,PIE,RECOG,Presented,105,101,Likert,User,1,"Was this item previously studied?",CONTROL,Recog,1::2,2683,YES,33.333333333333,-1,-1,0,0,,,1
ShamaraConerly,3ybdl9xnku,"Mediated JOLs",1,146,2023-04-05T18:01:18+00:00,2.0836369991302,6,versionC_stim.csv,JOLVersion_Recog.csv,"JOL Recog",JOL3,,CAVE,RECOG,CONTROL,66,119,Likert,User,1,"Was this item previously studied?",PRESENTED,Recog,1::2,1872,NO,0,-1,-1,0,0,,,1
ShamaraConerly,3ybdl9xnku,"Mediated JOLs",1,147,2023-04-05T18:01:21+00:00,2.4632320404053,6,versionC_stim.csv,JOLVersion_Recog.csv,"JOL Recog",JOL3,,MAROON,RECOG,Presented,132,106,Likert,User,1,"Was this item previously studied?",PRESENTED,Recog,1::2,2010,YES,0,-1,-1,0,0,,,1
ShamaraConerly,3ybdl9xnku,"Mediated JOLs",1,148,2023-04-05T18:01:23+00:00,2.3122079372406,6,versionC_stim.csv,JOLVersion_Recog.csv,"JOL Recog",JOL3,,KNOB,RECOG,CONTROL,70,102,Likert,User,1,"Was this item previously studied?",PRESENTED,Recog,1::2,1918,NO,66.666666666667,-1,-1,0,0,,,1
ShamaraConerly,3ybdl9xnku,"Mediated JOLs",1,149,2023-04-05T18:01:25+00:00,2.0713028907776,6,versionC_stim.csv,JOLVersion_Recog.csv,"JOL Recog",JOL3,,WATER,RECOG,CONTROL,86,98,Likert,User,1,"Was this item previously studied?",CONTROL,Recog,1::2,1855,NO,0,-1,-1,0,0,,,1
ShamaraConerly,3ybdl9xnku,"Mediated JOLs",1,150,2023-04-05T18:01:28+00:00,2.7398481369019,6,versionC_stim.csv,JOLVersion_Recog.csv,"JOL Recog",JOL3,,LEG,RECOG,CONTROL,101,73,Likert,User,1,"Was this item previously studied?",CONTROL,Recog,1::2,2512,NO,0,-1,-1,0,0,,,1
ShamaraConerly,3ybdl9xnku,"Mediated JOLs",1,151,2023-04-05T18:01:31+00:00,3.2118818759918,6,versionC_stim.csv,JOLVersion_Recog.csv,"JOL Recog",JOL3,,HEAD,RECOG,Presented,119,93,Likert,User,1,"Was this item previously studied?",CONTROL,Recog,1::2,2874,NO,0,-1,-1,0,0,,,1
ShamaraConerly,3ybdl9xnku,"Mediated JOLs",1,152,2023-04-05T18:01:34+00:00,2.5367050170898,6,versionC_stim.csv,JOLVersion_Recog.csv,"JOL Recog",JOL3,,SENTENCE,RECOG,Presented,123,82,Likert,User,1,"Was this item previously studied?",CONTROL,Recog,1::2,2192,YES,18.181818181818,-1,-1,0,0,,,1
ShamaraConerly,3ybdl9xnku,"Mediated JOLs",1,153,2023-04-05T18:01:37+00:00,2.8832719326019,6,versionC_stim.csv,JOLVersion_Recog.csv,"JOL Recog",JOL3,,DANCE,RECOG,Presented,109,89,Likert,User,1,"Was this item previously studied?",CONTROL,Recog,1::2,2664,NO,28.571428571429,-1,-1,0,0,,,1
ShamaraConerly,3ybdl9xnku,"Mediated JOLs",1,154,2023-04-05T18:01:38+00:00,1.6438391208649,6,versionC_stim.csv,JOLVersion_Recog.csv,"JOL Recog",JOL3,,,,,,0,Instruct,User,-,"You have completed this section. Please press Enter.",,Instruct7,,1419,,,-1,-1,,,,,1
ShamaraConerly,3ybdl9xnku,"Mediated JOLs",1,155,2023-04-05T18:01:45+00:00,6.8415920734406,6,versionC_stim.csv,JOLVersion_Recog.csv,"JOL Recog",JOL3,,,,,,0,Instruct,User,-,"The following screen will ask you a few questions abour your experience today. You must complete these questions to receive credit.",,Instruct8,,6618,,,-1,-1,,,,,1
