Username,ID,ExperimentName,Session,Trial,Date,TimeDif,"Condition Number","Stimuli File","Order File","Condition Description","Condition Notes",Stimuli*Cue,Stimuli*Answer,Stimuli*Shuffle,"Stimuli*Stimuli Notes",Stimuli*Value,Procedure*Item,"Procedure*Trial Type","Procedure*Max Time","Procedure*Min Time",Procedure*Text,"Procedure*Procedure Notes",Procedure*Shuffle,Response*RT,Response*Response,Response*Accuracy,Response*RTfirst,Response*RTlast,Response*strictAcc,Response*lenientAcc,Response*focus,Response*Focus
ArielThomas,0q3o7jzxb2,"Mediated JOLs",1,1,2023-03-15T15:23:34+00:00,10.969400882721,3,versionB_stim.csv,ReadVersion_Recall.csv,"Read Recall",Read2,,,,,,0,Instruct,-,5,"In this section, you will be presented with a series of word pairs. Please study each word pair! Your memory will be tested!",Initial_Instruct,Instruct1,10535,,,-1,-1,,,,1
ArielThomas,0q3o7jzxb2,"Mediated JOLs",1,2,2023-03-15T15:23:40+00:00,5.8376750946045,3,versionB_stim.csv,ReadVersion_Recall.csv,"Read Recall",Read2,,,,,,0,Instruct,User,-,"You will now begin. Press Enter when you are ready to begin.",,Instruct16,5313,,,-1,-1,,,,1
ArielThomas,0q3o7jzxb2,"Mediated JOLs",1,3,2023-03-15T15:23:43+00:00,3.0089190006256,3,versionB_stim.csv,ReadVersion_Recall.csv,"Read Recall",Read2,OCTOBER,SPOOKY,BUFFER3,Buffer,5,3,Study,User,-,,Study/JOL,BUFFER,2441,,,-1,-1,,,,1
ArielThomas,0q3o7jzxb2,"Mediated JOLs",1,4,2023-03-15T15:23:48+00:00,4.9370419979095,3,versionB_stim.csv,ReadVersion_Recall.csv,"Read Recall",Read2,SPRING,MARCH,BUFFER3,Buffer,4,2,Study,User,-,,Study/JOL,BUFFER,4322,,,-1,-1,,,,1
ArielThomas,0q3o7jzxb2,"Mediated JOLs",1,5,2023-03-15T15:23:50+00:00,2.4882109165192,3,versionB_stim.csv,ReadVersion_Recall.csv,"Read Recall",Read2,MONTH,YEAR,BUFFER3,Buffer,2,6,Study,User,-,,Study/JOL,BUFFER,1956,,,-1,-1,,,,1
ArielThomas,0q3o7jzxb2,"Mediated JOLs",1,6,2023-03-15T15:23:56+00:00,5.2124600410461,3,versionB_stim.csv,ReadVersion_Recall.csv,"Read Recall",Read2,DAYS,WEAKS,BUFFER3,Buffer,1,5,Study,User,-,,Study/JOL,BUFFER,4660,,,-1,-1,,,,1
ArielThomas,0q3o7jzxb2,"Mediated JOLs",1,7,2023-03-15T15:24:00+00:00,4.1644680500031,3,versionB_stim.csv,ReadVersion_Recall.csv,"Read Recall",Read2,TOOL,SHED,BUFFER3,Buffer,3,4,Study,User,-,,Study/JOL,BUFFER,3572,,,-1,-1,,,,1
ArielThomas,0q3o7jzxb2,"Mediated JOLs",1,8,2023-03-15T15:24:03+00:00,3.5583908557892,3,versionB_stim.csv,ReadVersion_Recall.csv,"Read Recall",Read2,DEATH,BUSINESS,Study2,U,44,51,Study,User,-,,Study/JOL,"Study Phase",2979,,,-1,-1,,,,1
ArielThomas,0q3o7jzxb2,"Mediated JOLs",1,9,2023-03-15T15:24:07+00:00,3.2838051319122,3,versionB_stim.csv,ReadVersion_Recall.csv,"Read Recall",Read2,GRILL,THIGH,Study2,M,17,18,Study,User,-,,Study/JOL,"Study Phase",2697,,,-1,-1,,,,1
ArielThomas,0q3o7jzxb2,"Mediated JOLs",1,10,2023-03-15T15:24:11+00:00,4.1037480831146,3,versionB_stim.csv,ReadVersion_Recall.csv,"Read Recall",Read2,ARTERY,BRONZE,Study2,U,48,22,Study,User,-,,Study/JOL,"Study Phase",3555,,,-1,-1,,,,1
ArielThomas,0q3o7jzxb2,"Mediated JOLs",1,11,2023-03-15T15:24:15+00:00,4.0239369869232,3,versionB_stim.csv,ReadVersion_Recall.csv,"Read Recall",Read2,HORNET,STING,Study2,F,30,41,Study,User,-,,Study/JOL,"Study Phase",3424,,,-1,-1,,,,1
ArielThomas,0q3o7jzxb2,"Mediated JOLs",1,12,2023-03-15T15:24:18+00:00,2.9448728561401,3,versionB_stim.csv,ReadVersion_Recall.csv,"Read Recall",Read2,ATTIRE,CLOTHES,Study2,F,24,16,Study,User,-,,Study/JOL,"Study Phase",2378,,,-1,-1,,,,1
ArielThomas,0q3o7jzxb2,"Mediated JOLs",1,13,2023-03-15T15:24:20+00:00,2.4319989681244,3,versionB_stim.csv,ReadVersion_Recall.csv,"Read Recall",Read2,DIETARY,SACK,Study2,U,42,42,Study,User,-,,Study/JOL,"Study Phase",1906,,,-1,-1,,,,1
ArielThomas,0q3o7jzxb2,"Mediated JOLs",1,14,2023-03-15T15:24:22+00:00,2.244225025177,3,versionB_stim.csv,ReadVersion_Recall.csv,"Read Recall",Read2,BOTH,OUNCE,Study2,U,47,30,Study,User,-,,Study/JOL,"Study Phase",1623,,,-1,-1,,,,1
ArielThomas,0q3o7jzxb2,"Mediated JOLs",1,15,2023-03-15T15:24:25+00:00,2.3158719539642,3,versionB_stim.csv,ReadVersion_Recall.csv,"Read Recall",Read2,CHISEL,HAMMER,Study2,F,23,19,Study,User,-,,Study/JOL,"Study Phase",1689,,,-1,-1,,,,1
ArielThomas,0q3o7jzxb2,"Mediated JOLs",1,16,2023-03-15T15:24:28+00:00,3.1582980155945,3,versionB_stim.csv,ReadVersion_Recall.csv,"Read Recall",Read2,REALITY,ISLAND,Study2,M,9,34,Study,User,-,,Study/JOL,"Study Phase",2544,,,-1,-1,,,,1
ArielThomas,0q3o7jzxb2,"Mediated JOLs",1,17,2023-03-15T15:24:30+00:00,1.7113471031189,3,versionB_stim.csv,ReadVersion_Recall.csv,"Read Recall",Read2,CHOP,CUT,Study2,F,22,40,Study,User,-,,Study/JOL,"Study Phase",1379,,,-1,-1,,,,1
ArielThomas,0q3o7jzxb2,"Mediated JOLs",1,18,2023-03-15T15:24:34+00:00,4.2565059661865,3,versionB_stim.csv,ReadVersion_Recall.csv,"Read Recall",Read2,FEUD,FIGHT,Study2,F,31,15,Study,User,-,,Study/JOL,"Study Phase",3719,,,-1,-1,,,,1
ArielThomas,0q3o7jzxb2,"Mediated JOLs",1,19,2023-03-15T15:24:36+00:00,2.6407890319824,3,versionB_stim.csv,ReadVersion_Recall.csv,"Read Recall",Read2,INCENSE,SMELL,Study2,F,28,20,Study,User,-,,Study/JOL,"Study Phase",2071,,,-1,-1,,,,1
ArielThomas,0q3o7jzxb2,"Mediated JOLs",1,20,2023-03-15T15:24:40+00:00,3.2300579547882,3,versionB_stim.csv,ReadVersion_Recall.csv,"Read Recall",Read2,WINDOW,KNOB,Study2,M,19,10,Study,User,-,,Study/JOL,"Study Phase",2670,,,-1,-1,,,,1
ArielThomas,0q3o7jzxb2,"Mediated JOLs",1,21,2023-03-15T15:24:43+00:00,3.3190400600433,3,versionB_stim.csv,ReadVersion_Recall.csv,"Read Recall",Read2,MIRROR,CHILDREN,Study2,U,49,11,Study,User,-,,Study/JOL,"Study Phase",2761,,,-1,-1,,,,1
ArielThomas,0q3o7jzxb2,"Mediated JOLs",1,22,2023-03-15T15:24:45+00:00,2.2045290470123,3,versionB_stim.csv,ReadVersion_Recall.csv,"Read Recall",Read2,CHERRY,RED,Study2,F,25,47,Study,User,-,,Study/JOL,"Study Phase",1677,,,-1,-1,,,,1
ArielThomas,0q3o7jzxb2,"Mediated JOLs",1,23,2023-03-15T15:24:48+00:00,2.8160579204559,3,versionB_stim.csv,ReadVersion_Recall.csv,"Read Recall",Read2,CASH,LEG,Study2,U,50,13,Study,User,-,,Study/JOL,"Study Phase",2243,,,-1,-1,,,,1
ArielThomas,0q3o7jzxb2,"Mediated JOLs",1,24,2023-03-15T15:24:50+00:00,1.8391690254211,3,versionB_stim.csv,ReadVersion_Recall.csv,"Read Recall",Read2,TRAP,CAVE,Study2,M,15,37,Study,User,-,,Study/JOL,"Study Phase",1510,,,-1,-1,,,,1
ArielThomas,0q3o7jzxb2,"Mediated JOLs",1,25,2023-03-15T15:24:54+00:00,4.0729410648346,3,versionB_stim.csv,ReadVersion_Recall.csv,"Read Recall",Read2,BLAZE,FIRE,Study2,F,26,49,Study,User,-,,Study/JOL,"Study Phase",3503,,,-1,-1,,,,1
ArielThomas,0q3o7jzxb2,"Mediated JOLs",1,26,2023-03-15T15:24:56+00:00,2.4670670032501,3,versionB_stim.csv,ReadVersion_Recall.csv,"Read Recall",Read2,BRIDGE,WATER,Study2,F,35,23,Study,User,-,,Study/JOL,"Study Phase",1952,,,-1,-1,,,,1
ArielThomas,0q3o7jzxb2,"Mediated JOLs",1,27,2023-03-15T15:24:58+00:00,1.8070468902588,3,versionB_stim.csv,ReadVersion_Recall.csv,"Read Recall",Read2,LEAGUE,BASEBALL,Study2,F,29,26,Study,User,-,,Study/JOL,"Study Phase",1500,,,-1,-1,,,,1
ArielThomas,0q3o7jzxb2,"Mediated JOLs",1,28,2023-03-15T15:25:00+00:00,1.7262871265411,3,versionB_stim.csv,ReadVersion_Recall.csv,"Read Recall",Read2,PUSH,CLUTTER,Study2,U,41,8,Study,User,-,,Study/JOL,"Study Phase",1416,,,-1,-1,,,,1
ArielThomas,0q3o7jzxb2,"Mediated JOLs",1,29,2023-03-15T15:25:02+00:00,2.0806798934937,3,versionB_stim.csv,ReadVersion_Recall.csv,"Read Recall",Read2,NURSE,LAWYER,Study2,M,11,46,Study,User,-,,Study/JOL,"Study Phase",1560,,,-1,-1,,,,1
ArielThomas,0q3o7jzxb2,"Mediated JOLs",1,30,2023-03-15T15:25:04+00:00,2.3639500141144,3,versionB_stim.csv,ReadVersion_Recall.csv,"Read Recall",Read2,HEAVY,FEATHER,Study2,M,13,44,Study,User,-,,Study/JOL,"Study Phase",1840,,,-1,-1,,,,1
ArielThomas,0q3o7jzxb2,"Mediated JOLs",1,31,2023-03-15T15:25:06+00:00,1.8526639938354,3,versionB_stim.csv,ReadVersion_Recall.csv,"Read Recall",Read2,SUGAR,RIDDLE,Study2,U,40,9,Study,User,-,,Study/JOL,"Study Phase",1528,,,-1,-1,,,,1
ArielThomas,0q3o7jzxb2,"Mediated JOLs",1,32,2023-03-15T15:25:08+00:00,1.3551890850067,3,versionB_stim.csv,ReadVersion_Recall.csv,"Read Recall",Read2,ART,WOLF,Study2,U,38,14,Study,User,-,,Study/JOL,"Study Phase",1042,,,-1,-1,,,,1
ArielThomas,0q3o7jzxb2,"Mediated JOLs",1,33,2023-03-15T15:25:09+00:00,1.8728339672089,3,versionB_stim.csv,ReadVersion_Recall.csv,"Read Recall",Read2,BENCH,HORN,Study2,U,43,21,Study,User,-,,Study/JOL,"Study Phase",1550,,,-1,-1,,,,1
ArielThomas,0q3o7jzxb2,"Mediated JOLs",1,34,2023-03-15T15:25:12+00:00,2.7128629684448,3,versionB_stim.csv,ReadVersion_Recall.csv,"Read Recall",Read2,KING,VASE,Study2,U,36,7,Study,User,-,,Study/JOL,"Study Phase",2116,,,-1,-1,,,,1
ArielThomas,0q3o7jzxb2,"Mediated JOLs",1,35,2023-03-15T15:25:14+00:00,1.7033779621124,3,versionB_stim.csv,ReadVersion_Recall.csv,"Read Recall",Read2,CACTUS,PLANT,Study2,F,21,32,Study,User,-,,Study/JOL,"Study Phase",1382,,,-1,-1,,,,1
ArielThomas,0q3o7jzxb2,"Mediated JOLs",1,36,2023-03-15T15:25:17+00:00,2.9325399398804,3,versionB_stim.csv,ReadVersion_Recall.csv,"Read Recall",Read2,VALLEY,PEAK,Study2,M,18,33,Study,User,-,,Study/JOL,"Study Phase",2395,,,-1,-1,,,,1
ArielThomas,0q3o7jzxb2,"Mediated JOLs",1,37,2023-03-15T15:25:19+00:00,2.6114890575409,3,versionB_stim.csv,ReadVersion_Recall.csv,"Read Recall",Read2,HERD,COW,Study2,F,33,39,Study,User,-,,Study/JOL,"Study Phase",2090,,,-1,-1,,,,1
ArielThomas,0q3o7jzxb2,"Mediated JOLs",1,38,2023-03-15T15:25:22+00:00,2.5553069114685,3,versionB_stim.csv,ReadVersion_Recall.csv,"Read Recall",Read2,OVEN,BASKET,Study2,M,16,36,Study,User,-,,Study/JOL,"Study Phase",1992,,,-1,-1,,,,1
ArielThomas,0q3o7jzxb2,"Mediated JOLs",1,39,2023-03-15T15:25:24+00:00,1.7818460464478,3,versionB_stim.csv,ReadVersion_Recall.csv,"Read Recall",Read2,CHILL,COLD,Study2,F,32,12,Study,User,-,,Study/JOL,"Study Phase",1468,,,-1,-1,,,,1
ArielThomas,0q3o7jzxb2,"Mediated JOLs",1,40,2023-03-15T15:25:27+00:00,2.8297700881958,3,versionB_stim.csv,ReadVersion_Recall.csv,"Read Recall",Read2,RAKE,SEED,Study2,M,14,31,Study,User,-,,Study/JOL,"Study Phase",2002,,,-1,-1,,,,1
ArielThomas,0q3o7jzxb2,"Mediated JOLs",1,41,2023-03-15T15:25:29+00:00,2.0145678520203,3,versionB_stim.csv,ReadVersion_Recall.csv,"Read Recall",Read2,SCHOOL,STOP,Study2,M,7,38,Study,User,-,,Study/JOL,"Study Phase",1422,,,-1,-1,,,,1
ArielThomas,0q3o7jzxb2,"Mediated JOLs",1,42,2023-03-15T15:25:32+00:00,3.6037540435791,3,versionB_stim.csv,ReadVersion_Recall.csv,"Read Recall",Read2,LEASE,TOIL,Study2,U,46,43,Study,User,-,,Study/JOL,"Study Phase",3070,,,-1,-1,,,,1
ArielThomas,0q3o7jzxb2,"Mediated JOLs",1,43,2023-03-15T15:25:35+00:00,2.739550113678,3,versionB_stim.csv,ReadVersion_Recall.csv,"Read Recall",Read2,HAPPY,CAR,Study2,U,37,48,Study,User,-,,Study/JOL,"Study Phase",2220,,,-1,-1,,,,1
ArielThomas,0q3o7jzxb2,"Mediated JOLs",1,44,2023-03-15T15:25:37+00:00,2.2965178489685,3,versionB_stim.csv,ReadVersion_Recall.csv,"Read Recall",Read2,SOAP,DRINK,Study2,M,12,50,Study,User,-,,Study/JOL,"Study Phase",1749,,,-1,-1,,,,1
ArielThomas,0q3o7jzxb2,"Mediated JOLs",1,45,2023-03-15T15:25:39+00:00,2.2028419971466,3,versionB_stim.csv,ReadVersion_Recall.csv,"Read Recall",Read2,STRONG,ACCIDENT,Study2,U,39,17,Study,User,-,,Study/JOL,"Study Phase",1641,,,-1,-1,,,,1
ArielThomas,0q3o7jzxb2,"Mediated JOLs",1,46,2023-03-15T15:25:42+00:00,2.9580941200256,3,versionB_stim.csv,ReadVersion_Recall.csv,"Read Recall",Read2,PANTS,COLLAR,Study2,M,8,27,Study,User,-,,Study/JOL,"Study Phase",2280,,,-1,-1,,,,1
ArielThomas,0q3o7jzxb2,"Mediated JOLs",1,47,2023-03-15T15:25:46+00:00,3.8182339668274,3,versionB_stim.csv,ReadVersion_Recall.csv,"Read Recall",Read2,RAZOR,MUSCLE,Study2,M,20,29,Study,User,-,,Study/JOL,"Study Phase",3268,,,-1,-1,,,,1
ArielThomas,0q3o7jzxb2,"Mediated JOLs",1,48,2023-03-15T15:25:50+00:00,3.5583870410919,3,versionB_stim.csv,ReadVersion_Recall.csv,"Read Recall",Read2,SICK,HIDE,Study2,U,45,28,Study,User,-,,Study/JOL,"Study Phase",3006,,,-1,-1,,,,1
ArielThomas,0q3o7jzxb2,"Mediated JOLs",1,49,2023-03-15T15:25:52+00:00,2.1837730407715,3,versionB_stim.csv,ReadVersion_Recall.csv,"Read Recall",Read2,SUMMER,SNOW,Study2,M,6,25,Study,User,-,,Study/JOL,"Study Phase",1672,,,-1,-1,,,,1
ArielThomas,0q3o7jzxb2,"Mediated JOLs",1,50,2023-03-15T15:25:56+00:00,4.1441748142242,3,versionB_stim.csv,ReadVersion_Recall.csv,"Read Recall",Read2,EYES,SMELL,Study2,M,10,24,Study,User,-,,Study/JOL,"Study Phase",3563,,,-1,-1,,,,1
ArielThomas,0q3o7jzxb2,"Mediated JOLs",1,51,2023-03-15T15:25:59+00:00,3.3645961284637,3,versionB_stim.csv,ReadVersion_Recall.csv,"Read Recall",Read2,DOCUMENT,PAPER,Study2,F,27,35,Study,User,-,,Study/JOL,"Study Phase",2759,,,-1,-1,,,,1
ArielThomas,0q3o7jzxb2,"Mediated JOLs",1,52,2023-03-15T15:26:02+00:00,2.3001019954681,3,versionB_stim.csv,ReadVersion_Recall.csv,"Read Recall",Read2,WASP,BUG,Study2,F,34,45,Study,User,-,,Study/JOL,"Study Phase",1719,,,-1,-1,,,,1
ArielThomas,0q3o7jzxb2,"Mediated JOLs",1,53,2023-03-15T15:26:04+00:00,2.2678129673004,3,versionB_stim.csv,ReadVersion_Recall.csv,"Read Recall",Read2,GEESE,GOOSE,BUFFER2,Buffer,106,111,Study,User,-,,Study/JOL,BUFFER2,1767,,,-1,-1,,,,1
ArielThomas,0q3o7jzxb2,"Mediated JOLs",1,54,2023-03-15T15:26:07+00:00,2.71231508255,3,versionB_stim.csv,ReadVersion_Recall.csv,"Read Recall",Read2,SHRIMP,FISH,BUFFER4,Buffer,53,52,Study,User,-,,Study/JOL,BUFFER2,1834,,,-1,-1,,,,1
ArielThomas,0q3o7jzxb2,"Mediated JOLs",1,55,2023-03-15T15:26:10+00:00,2.9846699237823,3,versionB_stim.csv,ReadVersion_Recall.csv,"Read Recall",Read2,TREES,GREEN,BUFFER1,Buffer,56,58,Study,User,-,,Study/JOL,BUFFER2,2427,,,-1,-1,,,,1
ArielThomas,0q3o7jzxb2,"Mediated JOLs",1,56,2023-03-15T15:26:12+00:00,2.5492360591888,3,versionB_stim.csv,ReadVersion_Recall.csv,"Read Recall",Read2,THING,STUFF,BUFFER2,Buffer,110,107,Study,User,-,,Study/JOL,BUFFER2,2010,,,-1,-1,,,,1
ArielThomas,0q3o7jzxb2,"Mediated JOLs",1,57,2023-03-15T15:26:14+00:00,2.2141299247742,3,versionB_stim.csv,ReadVersion_Recall.csv,"Read Recall",Read2,SPACE,JAM,BUFFER1,Buffer,60,59,Study,User,-,,Study/JOL,BUFFER2,1594,,,-1,-1,,,,1
ArielThomas,0q3o7jzxb2,"Mediated JOLs",1,58,2023-03-15T15:26:17+00:00,3.0127019882202,3,versionB_stim.csv,ReadVersion_Recall.csv,"Read Recall",Read2,,,,,,0,Instruct,User,-,"You have completed this section. Please press Enter.",Filler_Instruction,Instruct2,2436,,,-1,-1,,,,1
ArielThomas,0q3o7jzxb2,"Mediated JOLs",1,59,2023-03-15T15:28:18+00:00,120.52978110313,3,versionB_stim.csv,ReadVersion_Recall.csv,"Read Recall",Read2,,,,,,0,FreeRecall,120,120,"Please list the 50 US states in alphabetical order. The task will automatically advance to the next screen after two minutes.",,Filler1,120002,"Alabama Arkansas California Connecticut Delaware Florida Georgia Hawaii Idaho Illinois Kansas ",0,9972,115935,0,0,,1
ArielThomas,0q3o7jzxb2,"Mediated JOLs",1,60,2023-03-15T15:28:30+00:00,12.146741867065,3,versionB_stim.csv,ReadVersion_Recall.csv,"Read Recall",Read2,,,,,,0,Instruct,-,10,"You will now be presented with the first word from each of the previously studied item pairs. Please type the missing word. If you do not know the word, you may guess or press Enter to skip forward to the next pair.",,Instruct3,11599,,,-1,-1,,,,1
ArielThomas,0q3o7jzxb2,"Mediated JOLs",1,61,2023-03-15T15:28:49+00:00,19.262884140015,3,versionB_stim.csv,ReadVersion_Recall.csv,"Read Recall",Read2,BOTH,OUNCE,Study2,U,47,30,Test,User,-,,Recall,Recall1,18738,"Pair ",0,16243,16676,0,0,,1
ArielThomas,0q3o7jzxb2,"Mediated JOLs",1,62,2023-03-15T15:28:54+00:00,4.6356048583984,3,versionB_stim.csv,ReadVersion_Recall.csv,"Read Recall",Read2,BRIDGE,WATER,Study2,F,35,23,Test,User,-,,Recall,Recall1,4171,Water,100,2522,3171,1,1,,1
ArielThomas,0q3o7jzxb2,"Mediated JOLs",1,63,2023-03-15T15:28:58+00:00,3.9737830162048,3,versionB_stim.csv,ReadVersion_Recall.csv,"Read Recall",Read2,VALLEY,PEAK,Study2,M,18,33,Test,User,-,,Recall,Recall1,3366,Peak,100,1971,2420,1,1,,1
ArielThomas,0q3o7jzxb2,"Mediated JOLs",1,64,2023-03-15T15:29:04+00:00,6.3966221809387,3,versionB_stim.csv,ReadVersion_Recall.csv,"Read Recall",Read2,WASP,BUG,Study2,F,34,45,Test,User,-,,Recall,Recall1,5775,Sting,25,2140,4557,0,0,,1
ArielThomas,0q3o7jzxb2,"Mediated JOLs",1,65,2023-03-15T15:29:22+00:00,17.662006855011,3,versionB_stim.csv,ReadVersion_Recall.csv,"Read Recall",Read2,WINDOW,KNOB,Study2,M,19,10,Test,User,-,,Recall,Recall1,17064,House,22.222222222222,15102,16130,0,0,,1
ArielThomas,0q3o7jzxb2,"Mediated JOLs",1,66,2023-03-15T15:29:27+00:00,5.1185209751129,3,versionB_stim.csv,ReadVersion_Recall.csv,"Read Recall",Read2,SUMMER,SNOW,Study2,M,6,25,Test,User,-,,Recall,Recall1,4551,Spring,40,1568,2763,0,0,,1
ArielThomas,0q3o7jzxb2,"Mediated JOLs",1,67,2023-03-15T15:29:35+00:00,7.8918170928955,3,versionB_stim.csv,ReadVersion_Recall.csv,"Read Recall",Read2,ART,WOLF,Study2,U,38,14,Test,User,-,,Recall,Recall1,7349,Wolves,60,5236,6248,0,0,,1
ArielThomas,0q3o7jzxb2,"Mediated JOLs",1,68,2023-03-15T15:29:46+00:00,11.272652864456,3,versionB_stim.csv,ReadVersion_Recall.csv,"Read Recall",Read2,SICK,HIDE,Study2,U,45,28,Test,User,-,,Recall,Recall1,10710,Scared,20,8699,9774,0,0,,1
ArielThomas,0q3o7jzxb2,"Mediated JOLs",1,69,2023-03-15T15:29:50+00:00,3.5771181583405,3,versionB_stim.csv,ReadVersion_Recall.csv,"Read Recall",Read2,DOCUMENT,PAPER,Study2,F,27,35,Test,User,-,,Recall,Recall1,3005,Paper,100,1624,2070,1,1,,1
ArielThomas,0q3o7jzxb2,"Mediated JOLs",1,70,2023-03-15T15:30:01+00:00,10.664553880692,3,versionB_stim.csv,ReadVersion_Recall.csv,"Read Recall",Read2,ARTERY,BRONZE,Study2,U,48,22,Test,User,-,,Recall,Recall1,10105,Woods,18.181818181818,8270,8873,0,0,,1
ArielThomas,0q3o7jzxb2,"Mediated JOLs",1,71,2023-03-15T15:30:05+00:00,4.7790341377258,3,versionB_stim.csv,ReadVersion_Recall.csv,"Read Recall",Read2,NURSE,LAWYER,Study2,M,11,46,Test,User,-,,Recall,Recall1,4199,Lawyer,100,2041,3292,1,1,,1
ArielThomas,0q3o7jzxb2,"Mediated JOLs",1,72,2023-03-15T15:30:16+00:00,10.238972902298,3,versionB_stim.csv,ReadVersion_Recall.csv,"Read Recall",Read2,MIRROR,CHILDREN,Study2,U,49,11,Test,User,-,,Recall,Recall1,9684,Person,28.571428571429,7494,8804,0,0,,1
ArielThomas,0q3o7jzxb2,"Mediated JOLs",1,73,2023-03-15T15:30:20+00:00,4.109561920166,3,versionB_stim.csv,ReadVersion_Recall.csv,"Read Recall",Read2,LEAGUE,BASEBALL,Study2,F,29,26,Test,User,-,,Recall,Recall1,3526,Baseball,100,1735,2715,1,1,,1
ArielThomas,0q3o7jzxb2,"Mediated JOLs",1,74,2023-03-15T15:30:23+00:00,3.5113081932068,3,versionB_stim.csv,ReadVersion_Recall.csv,"Read Recall",Read2,OVEN,BASKET,Study2,M,16,36,Test,User,-,,Recall,Recall1,2928,Cook,20,1746,2251,0,0,,1
ArielThomas,0q3o7jzxb2,"Mediated JOLs",1,75,2023-03-15T15:30:31+00:00,7.6132538318634,3,versionB_stim.csv,ReadVersion_Recall.csv,"Read Recall",Read2,DEATH,BUSINESS,Study2,U,44,51,Test,User,-,,Recall,Recall1,7000,Live,33.333333333333,5019,6107,0,0,,1
ArielThomas,0q3o7jzxb2,"Mediated JOLs",1,76,2023-03-15T15:30:45+00:00,13.997918128967,3,versionB_stim.csv,ReadVersion_Recall.csv,"Read Recall",Read2,SOAP,DRINK,Study2,M,12,50,Test,User,-,,Recall,Recall1,13345,Oven,22.222222222222,9567,12227,0,0,,1
ArielThomas,0q3o7jzxb2,"Mediated JOLs",1,77,2023-03-15T15:30:50+00:00,5.5960998535156,3,versionB_stim.csv,ReadVersion_Recall.csv,"Read Recall",Read2,FEUD,FIGHT,Study2,F,31,15,Test,User,-,,Recall,Recall1,5015,Fight,100,3506,4004,1,1,,1
ArielThomas,0q3o7jzxb2,"Mediated JOLs",1,78,2023-03-15T15:30:56+00:00,5.9111630916595,3,versionB_stim.csv,ReadVersion_Recall.csv,"Read Recall",Read2,KING,VASE,Study2,U,36,7,Test,User,-,,Recall,Recall1,5353,"Queen ",22.222222222222,1806,3791,0,0,,1
ArielThomas,0q3o7jzxb2,"Mediated JOLs",1,79,2023-03-15T15:31:00+00:00,3.4893229007721,3,versionB_stim.csv,ReadVersion_Recall.csv,"Read Recall",Read2,BLAZE,FIRE,Study2,F,26,49,Test,User,-,,Recall,Recall1,2993,Fire,100,1687,2086,1,1,,1
ArielThomas,0q3o7jzxb2,"Mediated JOLs",1,80,2023-03-15T15:31:07+00:00,6.9599862098694,3,versionB_stim.csv,ReadVersion_Recall.csv,"Read Recall",Read2,REALITY,ISLAND,Study2,M,9,34,Test,User,-,,Recall,Recall1,6409,Island,100,2639,3939,1,1,,1
ArielThomas,0q3o7jzxb2,"Mediated JOLs",1,81,2023-03-15T15:31:11+00:00,4.0426428318024,3,versionB_stim.csv,ReadVersion_Recall.csv,"Read Recall",Read2,HAPPY,CAR,Study2,U,37,48,Test,User,-,,Recall,Recall1,3443,Sad,33.333333333333,2067,2476,0,0,,1
ArielThomas,0q3o7jzxb2,"Mediated JOLs",1,82,2023-03-15T15:31:15+00:00,3.9463839530945,3,versionB_stim.csv,ReadVersion_Recall.csv,"Read Recall",Read2,INCENSE,SMELL,Study2,F,28,20,Test,User,-,,Recall,Recall1,3362,Smell,100,1888,2489,1,1,,1
ArielThomas,0q3o7jzxb2,"Mediated JOLs",1,83,2023-03-15T15:31:20+00:00,5.1388170719147,3,versionB_stim.csv,ReadVersion_Recall.csv,"Read Recall",Read2,BENCH,HORN,Study2,U,43,21,Test,User,-,,Recall,Recall1,4660,Chair,44.444444444444,2008,2475,0,0,,1
ArielThomas,0q3o7jzxb2,"Mediated JOLs",1,84,2023-03-15T15:31:30+00:00,9.913684129715,3,versionB_stim.csv,ReadVersion_Recall.csv,"Read Recall",Read2,RAZOR,MUSCLE,Study2,M,20,29,Test,User,-,,Recall,Recall1,9377,Cut,22.222222222222,8254,8488,0,0,,1
ArielThomas,0q3o7jzxb2,"Mediated JOLs",1,85,2023-03-15T15:31:39+00:00,9.4770748615265,3,versionB_stim.csv,ReadVersion_Recall.csv,"Read Recall",Read2,EYES,SMELL,Study2,M,10,24,Test,User,-,,Recall,Recall1,8894,Ears,22.222222222222,4234,7696,0,0,,1
ArielThomas,0q3o7jzxb2,"Mediated JOLs",1,86,2023-03-15T15:31:43+00:00,3.4803020954132,3,versionB_stim.csv,ReadVersion_Recall.csv,"Read Recall",Read2,SCHOOL,STOP,Study2,M,7,38,Test,User,-,,Recall,Recall1,2742,Bus,28.571428571429,1652,1907,0,0,,1
ArielThomas,0q3o7jzxb2,"Mediated JOLs",1,87,2023-03-15T15:31:49+00:00,5.7195060253143,3,versionB_stim.csv,ReadVersion_Recall.csv,"Read Recall",Read2,STRONG,ACCIDENT,Study2,U,39,17,Test,User,-,,Recall,Recall1,5175,Weak,16.666666666667,3673,4161,0,0,,1
ArielThomas,0q3o7jzxb2,"Mediated JOLs",1,88,2023-03-15T15:31:54+00:00,5.2313098907471,3,versionB_stim.csv,ReadVersion_Recall.csv,"Read Recall",Read2,PANTS,COLLAR,Study2,M,8,27,Test,User,-,,Recall,Recall1,4680,Top,22.222222222222,2314,2648,0,0,,1
ArielThomas,0q3o7jzxb2,"Mediated JOLs",1,89,2023-03-15T15:31:57+00:00,3.6930289268494,3,versionB_stim.csv,ReadVersion_Recall.csv,"Read Recall",Read2,HORNET,STING,Study2,F,30,41,Test,User,-,,Recall,Recall1,3113,Sting,100,1709,2262,1,1,,1
ArielThomas,0q3o7jzxb2,"Mediated JOLs",1,90,2023-03-15T15:32:01+00:00,3.8943581581116,3,versionB_stim.csv,ReadVersion_Recall.csv,"Read Recall",Read2,CHERRY,RED,Study2,F,25,47,Test,User,-,,Recall,Recall1,3362,Red,100,1839,2175,1,1,,1
ArielThomas,0q3o7jzxb2,"Mediated JOLs",1,91,2023-03-15T15:32:07+00:00,5.3111460208893,3,versionB_stim.csv,ReadVersion_Recall.csv,"Read Recall",Read2,LEASE,TOIL,Study2,U,46,43,Test,User,-,,Recall,Recall1,4779,Weak,0,3395,3925,0,0,,1
ArielThomas,0q3o7jzxb2,"Mediated JOLs",1,92,2023-03-15T15:32:12+00:00,5.1089239120483,3,versionB_stim.csv,ReadVersion_Recall.csv,"Read Recall",Read2,PUSH,CLUTTER,Study2,U,41,8,Test,User,-,,Recall,Recall1,4484,"Shove ",16.666666666667,1732,2835,0,0,,1
ArielThomas,0q3o7jzxb2,"Mediated JOLs",1,93,2023-03-15T15:32:18+00:00,6.071417093277,3,versionB_stim.csv,ReadVersion_Recall.csv,"Read Recall",Read2,SUGAR,RIDDLE,Study2,U,40,9,Test,User,-,,Recall,Recall1,5479,Sweet,18.181818181818,2555,4593,0,0,,1
ArielThomas,0q3o7jzxb2,"Mediated JOLs",1,94,2023-03-15T15:32:23+00:00,4.9218108654022,3,versionB_stim.csv,ReadVersion_Recall.csv,"Read Recall",Read2,CHILL,COLD,Study2,F,32,12,Test,User,-,,Recall,Recall1,4313,Cold,100,3046,3428,1,1,,1
ArielThomas,0q3o7jzxb2,"Mediated JOLs",1,95,2023-03-15T15:32:29+00:00,6.2115430831909,3,versionB_stim.csv,ReadVersion_Recall.csv,"Read Recall",Read2,HERD,COW,Study2,F,33,39,Test,User,-,,Recall,Recall1,5646,Cows,85.714285714286,1865,4446,0,1,,1
ArielThomas,0q3o7jzxb2,"Mediated JOLs",1,96,2023-03-15T15:32:35+00:00,5.8684039115906,3,versionB_stim.csv,ReadVersion_Recall.csv,"Read Recall",Read2,GRILL,THIGH,Study2,M,17,18,Test,User,-,,Recall,Recall1,5206,Steak,20,3317,4131,0,0,,1
ArielThomas,0q3o7jzxb2,"Mediated JOLs",1,97,2023-03-15T15:32:39+00:00,3.7696101665497,3,versionB_stim.csv,ReadVersion_Recall.csv,"Read Recall",Read2,ATTIRE,CLOTHES,Study2,F,24,16,Test,User,-,,Recall,Recall1,3252,Clothes,100,1682,2432,1,1,,1
ArielThomas,0q3o7jzxb2,"Mediated JOLs",1,98,2023-03-15T15:32:42+00:00,3.5575268268585,3,versionB_stim.csv,ReadVersion_Recall.csv,"Read Recall",Read2,CASH,LEG,Study2,U,50,13,Test,User,-,,Recall,Recall1,3013,Money,25,1532,2123,0,0,,1
ArielThomas,0q3o7jzxb2,"Mediated JOLs",1,99,2023-03-15T15:32:46+00:00,4.1120409965515,3,versionB_stim.csv,ReadVersion_Recall.csv,"Read Recall",Read2,TRAP,CAVE,Study2,M,15,37,Test,User,-,,Recall,Recall1,3536,Door,0,2442,2808,0,0,,1
ArielThomas,0q3o7jzxb2,"Mediated JOLs",1,100,2023-03-15T15:32:50+00:00,3.6477751731873,3,versionB_stim.csv,ReadVersion_Recall.csv,"Read Recall",Read2,CACTUS,PLANT,Study2,F,21,32,Test,User,-,,Recall,Recall1,3052,Plant,100,1696,2245,1,1,,1
ArielThomas,0q3o7jzxb2,"Mediated JOLs",1,101,2023-03-15T15:32:55+00:00,5.1907539367676,3,versionB_stim.csv,ReadVersion_Recall.csv,"Read Recall",Read2,HEAVY,FEATHER,Study2,M,13,44,Test,User,-,,Recall,Recall1,4606,Strong,30.769230769231,2708,3740,0,0,,1
ArielThomas,0q3o7jzxb2,"Mediated JOLs",1,102,2023-03-15T15:33:00+00:00,4.5994708538055,3,versionB_stim.csv,ReadVersion_Recall.csv,"Read Recall",Read2,CHISEL,HAMMER,Study2,F,23,19,Test,User,-,,Recall,Recall1,3965,Art,44.444444444444,2156,2494,0,0,,1
ArielThomas,0q3o7jzxb2,"Mediated JOLs",1,103,2023-03-15T15:33:04+00:00,4.5918321609497,3,versionB_stim.csv,ReadVersion_Recall.csv,"Read Recall",Read2,DIETARY,SACK,Study2,U,42,42,Test,User,-,,Recall,Recall1,4005,Fiber,0,2416,3200,0,0,,1
ArielThomas,0q3o7jzxb2,"Mediated JOLs",1,104,2023-03-15T15:33:12+00:00,7.1915030479431,3,versionB_stim.csv,ReadVersion_Recall.csv,"Read Recall",Read2,CHOP,CUT,Study2,F,22,40,Test,User,-,,Recall,Recall1,6725,Shop,0,4647,5800,0,0,,1
ArielThomas,0q3o7jzxb2,"Mediated JOLs",1,105,2023-03-15T15:33:15+00:00,3.7950139045715,3,versionB_stim.csv,ReadVersion_Recall.csv,"Read Recall",Read2,RAKE,SEED,Study2,M,14,31,Test,User,-,,Recall,Recall1,3277,Leaves,40,1801,2551,0,0,,1
ArielThomas,0q3o7jzxb2,"Mediated JOLs",1,106,2023-03-15T15:33:27+00:00,11.9416680336,3,versionB_stim.csv,ReadVersion_Recall.csv,"Read Recall",Read2,,,,,,0,Instruct,-,10,"You will now be presented with a new set of word pairs. Please study each pair. Remember that your memory will be tested! When finished, press Enter to move to the next pair.",Initial_Instruct,Instruct4,11369,,,-1,-1,,,,1
ArielThomas,0q3o7jzxb2,"Mediated JOLs",1,107,2023-03-15T15:33:29+00:00,2.1618020534515,3,versionB_stim.csv,ReadVersion_Recall.csv,"Read Recall",Read2,,,,,,0,Instruct,User,-,"Press Enter when you are readty to begin",,Instruct11,1624,,,-1,-1,,,,1
ArielThomas,0q3o7jzxb2,"Mediated JOLs",1,108,2023-03-15T15:33:36+00:00,6.1117329597473,3,versionB_stim.csv,ReadVersion_Recall.csv,"Read Recall",Read2,CARROT,POTATO,BUFFER4,Buffer,51,55,Study,User,-,,Study/JOL,BUFFER2,5574,,,-1,-1,,,,1
ArielThomas,0q3o7jzxb2,"Mediated JOLs",1,109,2023-03-15T15:33:41+00:00,5.2872760295868,3,versionB_stim.csv,ReadVersion_Recall.csv,"Read Recall",Read2,PITCHER,CATCHER,BUFFER1,Buffer,57,61,Study,User,-,,Study/JOL,BUFFER2,4723,,,-1,-1,,,,1
ArielThomas,0q3o7jzxb2,"Mediated JOLs",1,110,2023-03-15T15:33:56+00:00,14.930948972702,3,versionB_stim.csv,ReadVersion_Recall.csv,"Read Recall",Read2,NOODLE,STRING,BUFFER4,Buffer,52,56,Study,User,-,,Study/JOL,BUFFER2,14341,,,-1,-1,,,,1
ArielThomas,0q3o7jzxb2,"Mediated JOLs",1,111,2023-03-15T15:34:20+00:00,23.758697032928,3,versionB_stim.csv,ReadVersion_Recall.csv,"Read Recall",Read2,MOON,SPACE,BUFFER2,Buffer,109,108,Study,User,-,,Study/JOL,BUFFER2,23173,,,-1,-1,,,,1
ArielThomas,0q3o7jzxb2,"Mediated JOLs",1,112,2023-03-15T15:34:26+00:00,6.2024137973785,3,versionB_stim.csv,ReadVersion_Recall.csv,"Read Recall",Read2,SCARE,FRIGHT,BUFFER1,Buffer,59,57,Study,User,-,,Study/JOL,BUFFER2,5577,,,-1,-1,,,,1
ArielThomas,0q3o7jzxb2,"Mediated JOLs",1,113,2023-03-15T15:34:39+00:00,13.109896183014,3,versionB_stim.csv,ReadVersion_Recall.csv,"Read Recall",Read2,STRETCH,CLOTH,Study1,U,92,75,Study,User,-,,Study/JOL,"Study Phase2",12508,,,-1,-1,,,,1
ArielThomas,0q3o7jzxb2,"Mediated JOLs",1,114,2023-03-15T15:34:42+00:00,2.8320589065552,3,versionB_stim.csv,ReadVersion_Recall.csv,"Read Recall",Read2,CRY,BOTTLE,Study1,M,71,89,Study,User,-,,Study/JOL,"Study Phase2",2259,,,-1,-1,,,,1
ArielThomas,0q3o7jzxb2,"Mediated JOLs",1,115,2023-03-15T15:34:52+00:00,10.053687095642,3,versionB_stim.csv,ReadVersion_Recall.csv,"Read Recall",Read2,ROOT,PLANT,Study1,F,80,67,Study,User,-,,Study/JOL,"Study Phase2",9566,,,-1,-1,,,,1
ArielThomas,0q3o7jzxb2,"Mediated JOLs",1,116,2023-03-15T15:34:57+00:00,5.6314318180084,3,versionB_stim.csv,ReadVersion_Recall.csv,"Read Recall",Read2,NAP,SLEEP,Study1,F,84,104,Study,User,-,,Study/JOL,"Study Phase2",5104,,,-1,-1,,,,1
ArielThomas,0q3o7jzxb2,"Mediated JOLs",1,117,2023-03-15T15:35:01+00:00,3.8450741767883,3,versionB_stim.csv,ReadVersion_Recall.csv,"Read Recall",Read2,ORCHID,FLOWER,Study1,F,89,99,Study,User,-,,Study/JOL,"Study Phase2",3316,,,-1,-1,,,,1
ArielThomas,0q3o7jzxb2,"Mediated JOLs",1,118,2023-03-15T15:35:17+00:00,15.436142921448,3,versionB_stim.csv,ReadVersion_Recall.csv,"Read Recall",Read2,SWAN,BIRD,Study1,F,81,80,Study,User,-,,Study/JOL,"Study Phase2",14967,,,-1,-1,,,,1
ArielThomas,0q3o7jzxb2,"Mediated JOLs",1,119,2023-03-15T15:35:19+00:00,2.2902269363403,3,versionB_stim.csv,ReadVersion_Recall.csv,"Read Recall",Read2,ROUGH,SILK,Study1,M,65,103,Study,User,-,,Study/JOL,"Study Phase2",1855,,,-1,-1,,,,1
ArielThomas,0q3o7jzxb2,"Mediated JOLs",1,120,2023-03-15T15:35:33+00:00,14.52516913414,3,versionB_stim.csv,ReadVersion_Recall.csv,"Read Recall",Read2,SHELL,SHAKE,Study1,U,98,71,Study,User,-,,Study/JOL,"Study Phase2",14070,,,-1,-1,,,,1
ArielThomas,0q3o7jzxb2,"Mediated JOLs",1,121,2023-03-15T15:35:45+00:00,11.321066856384,3,versionB_stim.csv,ReadVersion_Recall.csv,"Read Recall",Read2,CAKE,HAND,Study1,U,104,68,Study,User,-,,Study/JOL,"Study Phase2",10846,,,-1,-1,,,,1
ArielThomas,0q3o7jzxb2,"Mediated JOLs",1,122,2023-03-15T15:35:48+00:00,3.4193501472473,3,versionB_stim.csv,ReadVersion_Recall.csv,"Read Recall",Read2,TUNA,FISH,Study1,F,90,88,Study,User,-,,Study/JOL,"Study Phase2",2900,,,-1,-1,,,,1
ArielThomas,0q3o7jzxb2,"Mediated JOLs",1,123,2023-03-15T15:36:22+00:00,33.783706903458,3,versionB_stim.csv,ReadVersion_Recall.csv,"Read Recall",Read2,WAR,QUIET,Study1,M,63,79,Study,User,-,,Study/JOL,"Study Phase2",33244,,,-1,-1,,,,1
ArielThomas,0q3o7jzxb2,"Mediated JOLs",1,124,2023-03-15T15:36:28+00:00,5.8957829475403,3,versionB_stim.csv,ReadVersion_Recall.csv,"Read Recall",Read2,AFFECTION,LOVE,Study1,F,86,78,Study,User,-,,Study/JOL,"Study Phase2",5394,,,-1,-1,,,,1
ArielThomas,0q3o7jzxb2,"Mediated JOLs",1,125,2023-03-15T15:36:31+00:00,3.4327111244202,3,versionB_stim.csv,ReadVersion_Recall.csv,"Read Recall",Read2,SOON,BELT,Study1,U,101,85,Study,User,-,,Study/JOL,"Study Phase2",2851,,,-1,-1,,,,1
ArielThomas,0q3o7jzxb2,"Mediated JOLs",1,126,2023-03-15T15:36:36+00:00,4.8281390666962,3,versionB_stim.csv,ReadVersion_Recall.csv,"Read Recall",Read2,MAZE,PHONE,Study1,U,97,93,Study,User,-,,Study/JOL,"Study Phase2",4228,,,-1,-1,,,,1
ArielThomas,0q3o7jzxb2,"Mediated JOLs",1,127,2023-03-15T15:36:37+00:00,1.3177418708801,3,versionB_stim.csv,ReadVersion_Recall.csv,"Read Recall",Read2,GIVE,STEAK,Study1,U,93,84,Study,User,-,,Study/JOL,"Study Phase2",992,,,-1,-1,,,,1
ArielThomas,0q3o7jzxb2,"Mediated JOLs",1,128,2023-03-15T15:36:42+00:00,4.936558008194,3,versionB_stim.csv,ReadVersion_Recall.csv,"Read Recall",Read2,BIRTHDAY,PIE,Study1,M,64,102,Study,User,-,,Study/JOL,"Study Phase2",4404,,,-1,-1,,,,1
ArielThomas,0q3o7jzxb2,"Mediated JOLs",1,129,2023-03-15T15:36:47+00:00,4.8521280288696,3,versionB_stim.csv,ReadVersion_Recall.csv,"Read Recall",Read2,DAY,DARK,Study1,M,73,94,Study,User,-,,Study/JOL,"Study Phase2",4316,,,-1,-1,,,,1
ArielThomas,0q3o7jzxb2,"Mediated JOLs",1,130,2023-03-15T15:36:58+00:00,10.956592082977,3,versionB_stim.csv,ReadVersion_Recall.csv,"Read Recall",Read2,SIGN,TICK,Study1,U,102,95,Study,User,-,,Study/JOL,"Study Phase2",10438,,,-1,-1,,,,1
ArielThomas,0q3o7jzxb2,"Mediated JOLs",1,131,2023-03-15T15:37:02+00:00,3.3991758823395,3,versionB_stim.csv,ReadVersion_Recall.csv,"Read Recall",Read2,LISTEN,FICTION,Study1,U,99,97,Study,User,-,,Study/JOL,"Study Phase2",2874,,,-1,-1,,,,1
ArielThomas,0q3o7jzxb2,"Mediated JOLs",1,132,2023-03-15T15:37:09+00:00,7.8660209178925,3,versionB_stim.csv,ReadVersion_Recall.csv,"Read Recall",Read2,BEACH,BOX,Study1,M,62,63,Study,User,-,,Study/JOL,"Study Phase2",7389,,,-1,-1,,,,1
ArielThomas,0q3o7jzxb2,"Mediated JOLs",1,133,2023-03-15T15:37:20+00:00,10.842461109161,3,versionB_stim.csv,ReadVersion_Recall.csv,"Read Recall",Read2,WORD,SENTENCE,Study1,F,82,72,Study,User,-,,Study/JOL,"Study Phase2",10294,,,-1,-1,,,,1
ArielThomas,0q3o7jzxb2,"Mediated JOLs",1,134,2023-03-15T15:37:30+00:00,9.3184640407562,3,versionB_stim.csv,ReadVersion_Recall.csv,"Read Recall",Read2,TREE,SYRUP,Study1,M,66,81,Study,User,-,,Study/JOL,"Study Phase2",8750,,,-1,-1,,,,1
ArielThomas,0q3o7jzxb2,"Mediated JOLs",1,135,2023-03-15T15:37:33+00:00,3.2089960575104,3,versionB_stim.csv,ReadVersion_Recall.csv,"Read Recall",Read2,MIRROR,MAROON,Study1,U,91,91,Study,User,-,,Study/JOL,"Study Phase2",2596,,,-1,-1,,,,1
ArielThomas,0q3o7jzxb2,"Mediated JOLs",1,136,2023-03-15T15:37:39+00:00,6.437618970871,3,versionB_stim.csv,ReadVersion_Recall.csv,"Read Recall",Read2,BAT,BOUNCE,Study1,M,67,82,Study,User,-,,Study/JOL,"Study Phase2",5863,,,-1,-1,,,,1
ArielThomas,0q3o7jzxb2,"Mediated JOLs",1,137,2023-03-15T15:37:43+00:00,3.7046220302582,3,versionB_stim.csv,ReadVersion_Recall.csv,"Read Recall",Read2,MULE,DONKEY,Study1,F,79,77,Study,User,-,,Study/JOL,"Study Phase2",3072,,,-1,-1,,,,1
ArielThomas,0q3o7jzxb2,"Mediated JOLs",1,138,2023-03-15T15:37:46+00:00,3.387375831604,3,versionB_stim.csv,ReadVersion_Recall.csv,"Read Recall",Read2,MULE,DONKEY,Study1,F,85,105,Study,User,-,,Study/JOL,"Study Phase2",2834,,,-1,-1,,,,1
ArielThomas,0q3o7jzxb2,"Mediated JOLs",1,139,2023-03-15T15:37:51+00:00,4.7414491176605,3,versionB_stim.csv,ReadVersion_Recall.csv,"Read Recall",Read2,WAGE,MONEY,Study1,F,77,106,Study,User,-,,Study/JOL,"Study Phase2",4204,,,-1,-1,,,,1
ArielThomas,0q3o7jzxb2,"Mediated JOLs",1,140,2023-03-15T15:37:54+00:00,2.7633528709412,3,versionB_stim.csv,ReadVersion_Recall.csv,"Read Recall",Read2,SCALP,HEAD,Study1,F,78,87,Study,User,-,,Study/JOL,"Study Phase2",2198,,,-1,-1,,,,1
ArielThomas,0q3o7jzxb2,"Mediated JOLs",1,141,2023-03-15T15:38:05+00:00,10.775289058685,3,versionB_stim.csv,ReadVersion_Recall.csv,"Read Recall",Read2,FUZZY,BANG,Study1,U,105,101,Study,User,-,,Study/JOL,"Study Phase2",9942,,,-1,-1,,,,1
ArielThomas,0q3o7jzxb2,"Mediated JOLs",1,142,2023-03-15T15:38:11+00:00,6.2395310401917,3,versionB_stim.csv,ReadVersion_Recall.csv,"Read Recall",Read2,CEILING,CARPET,Study1,M,70,92,Study,User,-,,Study/JOL,"Study Phase2",5676,,,-1,-1,,,,1
ArielThomas,0q3o7jzxb2,"Mediated JOLs",1,143,2023-03-15T15:38:16+00:00,5.2459409236908,3,versionB_stim.csv,ReadVersion_Recall.csv,"Read Recall",Read2,SIP,DRINK,Study1,F,87,69,Study,User,-,,Study/JOL,"Study Phase2",4669,,,-1,-1,,,,1
ArielThomas,0q3o7jzxb2,"Mediated JOLs",1,144,2023-03-15T15:38:23+00:00,6.951672077179,3,versionB_stim.csv,ReadVersion_Recall.csv,"Read Recall",Read2,CIRCLE,DANCE,Study1,M,68,86,Study,User,-,,Study/JOL,"Study Phase2",6423,,,-1,-1,,,,1
ArielThomas,0q3o7jzxb2,"Mediated JOLs",1,145,2023-03-15T15:38:28+00:00,5.41290807724,3,versionB_stim.csv,ReadVersion_Recall.csv,"Read Recall",Read2,HORSE,WHEEL,Study1,M,69,64,Study,User,-,,Study/JOL,"Study Phase2",4884,,,-1,-1,,,,1
ArielThomas,0q3o7jzxb2,"Mediated JOLs",1,146,2023-03-15T15:38:46+00:00,17.789108991623,3,versionB_stim.csv,ReadVersion_Recall.csv,"Read Recall",Read2,KEYS,ROD,Study1,U,100,98,Study,User,-,,Study/JOL,"Study Phase2",17278,,,-1,-1,,,,1
ArielThomas,0q3o7jzxb2,"Mediated JOLs",1,147,2023-03-15T15:38:49+00:00,3.1373009681702,3,versionB_stim.csv,ReadVersion_Recall.csv,"Read Recall",Read2,TEMPERATURE,MORNING,Study1,U,103,62,Study,User,-,,Study/JOL,"Study Phase2",2569,,,-1,-1,,,,1
ArielThomas,0q3o7jzxb2,"Mediated JOLs",1,148,2023-03-15T15:38:55+00:00,5.7069289684296,3,versionB_stim.csv,ReadVersion_Recall.csv,"Read Recall",Read2,CREDIT,CARD,Study1,F,88,90,Study,User,-,,Study/JOL,"Study Phase2",5171,,,-1,-1,,,,1
ArielThomas,0q3o7jzxb2,"Mediated JOLs",1,149,2023-03-15T15:38:59+00:00,3.9500648975372,3,versionB_stim.csv,ReadVersion_Recall.csv,"Read Recall",Read2,TOOTH,HAIR,Study1,M,74,73,Study,User,-,,Study/JOL,"Study Phase2",3421,,,-1,-1,,,,1
ArielThomas,0q3o7jzxb2,"Mediated JOLs",1,150,2023-03-15T15:39:05+00:00,6.3640141487122,3,versionB_stim.csv,ReadVersion_Recall.csv,"Read Recall",Read2,MEAT,KEYS,Study1,U,96,74,Study,User,-,,Study/JOL,"Study Phase2",5625,,,-1,-1,,,,1
ArielThomas,0q3o7jzxb2,"Mediated JOLs",1,151,2023-03-15T15:39:09+00:00,3.9958078861237,3,versionB_stim.csv,ReadVersion_Recall.csv,"Read Recall",Read2,CRACKLE,ELECTION,Study1,U,94,100,Study,User,-,,Study/JOL,"Study Phase2",3555,,,-1,-1,,,,1
ArielThomas,0q3o7jzxb2,"Mediated JOLs",1,152,2023-03-15T15:39:13+00:00,3.5772891044617,3,versionB_stim.csv,ReadVersion_Recall.csv,"Read Recall",Read2,WEDDING,FINGER,Study1,M,72,83,Study,User,-,,Study/JOL,"Study Phase2",3072,,,-1,-1,,,,1
ArielThomas,0q3o7jzxb2,"Mediated JOLs",1,153,2023-03-15T15:39:22+00:00,8.8431069850922,3,versionB_stim.csv,ReadVersion_Recall.csv,"Read Recall",Read2,LION,STRIPES,Study1,M,61,66,Study,User,-,,Study/JOL,"Study Phase2",8357,,,-1,-1,,,,1
ArielThomas,0q3o7jzxb2,"Mediated JOLs",1,154,2023-03-15T15:39:28+00:00,5.9885618686676,3,versionB_stim.csv,ReadVersion_Recall.csv,"Read Recall",Read2,HARD,COTTON,Study1,M,75,65,Study,User,-,,Study/JOL,"Study Phase2",5503,,,-1,-1,,,,1
ArielThomas,0q3o7jzxb2,"Mediated JOLs",1,155,2023-03-15T15:39:37+00:00,8.9571390151978,3,versionB_stim.csv,ReadVersion_Recall.csv,"Read Recall",Read2,VEHICLE,CHARM,Study1,U,95,70,Study,User,-,,Study/JOL,"Study Phase2",8413,,,-1,-1,,,,1
ArielThomas,0q3o7jzxb2,"Mediated JOLs",1,156,2023-03-15T15:39:43+00:00,6.6012680530548,3,versionB_stim.csv,ReadVersion_Recall.csv,"Read Recall",Read2,LITTER,TRASH,Study1,F,76,76,Study,User,-,,Study/JOL,"Study Phase2",6009,,,-1,-1,,,,1
ArielThomas,0q3o7jzxb2,"Mediated JOLs",1,157,2023-03-15T15:39:53+00:00,9.4062700271606,3,versionB_stim.csv,ReadVersion_Recall.csv,"Read Recall",Read2,HYGIENE,CLEAN,Study1,F,83,96,Study,User,-,,Study/JOL,"Study Phase2",8797,,,-1,-1,,,,1
ArielThomas,0q3o7jzxb2,"Mediated JOLs",1,158,2023-03-15T15:39:57+00:00,4.2008349895477,3,versionB_stim.csv,ReadVersion_Recall.csv,"Read Recall",Read2,SHERRIF,POLICE,BUFFER2,Buffer,107,109,Study,User,-,,Study/JOL,BUFFER2,3681,,,-1,-1,,,,1
ArielThomas,0q3o7jzxb2,"Mediated JOLs",1,159,2023-03-15T15:39:59+00:00,1.7527039051056,3,versionB_stim.csv,ReadVersion_Recall.csv,"Read Recall",Read2,ICE,FROZEN,BUFFER4,Buffer,54,54,Study,User,-,,Study/JOL,BUFFER2,1432,,,-1,-1,,,,1
ArielThomas,0q3o7jzxb2,"Mediated JOLs",1,160,2023-03-15T15:40:02+00:00,3.7316470146179,3,versionB_stim.csv,ReadVersion_Recall.csv,"Read Recall",Read2,PEANUT,BUTTER,BUFFER1,Buffer,58,60,Study,User,-,,Study/JOL,BUFFER2,3224,,,-1,-1,,,,1
ArielThomas,0q3o7jzxb2,"Mediated JOLs",1,161,2023-03-15T15:40:14+00:00,11.488458156586,3,versionB_stim.csv,ReadVersion_Recall.csv,"Read Recall",Read2,MALT,CHOCOLATE,BUFFER2,Buffer,108,110,Study,User,-,,Study/JOL,BUFFER2,10915,,,-1,-1,,,,1
ArielThomas,0q3o7jzxb2,"Mediated JOLs",1,162,2023-03-15T15:40:21+00:00,7.281898021698,3,versionB_stim.csv,ReadVersion_Recall.csv,"Read Recall",Read2,CAMP,ADVENTURE,BUFFER4,Buffer,55,53,Study,User,-,,Study/JOL,BUFFER2,6678,,,-1,-1,,,,1
ArielThomas,0q3o7jzxb2,"Mediated JOLs",1,163,2023-03-15T15:40:33+00:00,11.794620990753,3,versionB_stim.csv,ReadVersion_Recall.csv,"Read Recall",Read2,,,,,,0,Instruct,User,-,"You have completed this section. Please press Enter.",Filler_Instruction,Instruct2,11195,,,-1,-1,,,,1
ArielThomas,0q3o7jzxb2,"Mediated JOLs",1,164,2023-03-15T15:42:34+00:00,120.58900499344,3,versionB_stim.csv,ReadVersion_Recall.csv,"Read Recall",Read2,,,,,,0,FreeRecall,120,120,"Please list the 50 US states in alphabetical order. The task will automatically advance to the next screen after two minutes.",,Filler1,120002,"Alabama Arkansas California Carolina Connecticut Delaware Florida Georgia Idaho Kansas Mississippi ",0,6820,109826,0,0,,1
ArielThomas,0q3o7jzxb2,"Mediated JOLs",1,165,2023-03-15T15:42:52+00:00,18.297194957733,3,versionB_stim.csv,ReadVersion_Recall.csv,"Read Recall",Read2,,,,,,0,Instruct,-,10,"You will now be presented with the first word from each of the previously studied item pairs. Please type the missing word. If you do not know the word, you may guess or press Enter to skip forward to the next pair.",,Instruct3,17726,,,-1,-1,,,,1
ArielThomas,0q3o7jzxb2,"Mediated JOLs",1,166,2023-03-15T15:42:57+00:00,5.3800990581512,3,versionB_stim.csv,ReadVersion_Recall.csv,"Read Recall",Read2,CRACKLE,ELECTION,Study1,U,94,100,Test,User,-,,Recall,Recall2,4697,Election,100,2471,3716,1,1,,1
ArielThomas,0q3o7jzxb2,"Mediated JOLs",1,167,2023-03-15T15:43:03+00:00,5.5218489170074,3,versionB_stim.csv,ReadVersion_Recall.csv,"Read Recall",Read2,AFFECTION,LOVE,Study1,F,86,78,Test,User,-,,Recall,Recall2,4931,"Love ",100,2314,2748,1,1,,1
ArielThomas,0q3o7jzxb2,"Mediated JOLs",1,168,2023-03-15T15:43:07+00:00,3.9487528800964,3,versionB_stim.csv,ReadVersion_Recall.csv,"Read Recall",Read2,BIRTHDAY,PIE,Study1,M,64,102,Test,User,-,,Recall,Recall2,3415,Pie,100,2116,2404,1,1,,1
ArielThomas,0q3o7jzxb2,"Mediated JOLs",1,169,2023-03-15T15:43:12+00:00,5.1326429843903,3,versionB_stim.csv,ReadVersion_Recall.csv,"Read Recall",Read2,CEILING,CARPET,Study1,M,70,92,Test,User,-,,Recall,Recall2,4512,Carpet,100,2380,3417,1,1,,1
ArielThomas,0q3o7jzxb2,"Mediated JOLs",1,170,2023-03-15T15:43:17+00:00,4.627622127533,3,versionB_stim.csv,ReadVersion_Recall.csv,"Read Recall",Read2,NAP,SLEEP,Study1,F,84,104,Test,User,-,,Recall,Recall2,4045,Sleep,100,2113,2561,1,1,,1
ArielThomas,0q3o7jzxb2,"Mediated JOLs",1,171,2023-03-15T15:43:21+00:00,4.6820230484009,3,versionB_stim.csv,ReadVersion_Recall.csv,"Read Recall",Read2,GIVE,STEAK,Study1,U,93,84,Test,User,-,,Recall,Recall2,4105,Away,22.222222222222,2781,3231,0,0,,1
ArielThomas,0q3o7jzxb2,"Mediated JOLs",1,172,2023-03-15T15:43:25+00:00,4.0027248859406,3,versionB_stim.csv,ReadVersion_Recall.csv,"Read Recall",Read2,SWAN,BIRD,Study1,F,81,80,Test,User,-,,Recall,Recall2,3431,Bird,100,1881,2317,1,1,,1
ArielThomas,0q3o7jzxb2,"Mediated JOLs",1,173,2023-03-15T15:43:29+00:00,4.117063999176,3,versionB_stim.csv,ReadVersion_Recall.csv,"Read Recall",Read2,CREDIT,CARD,Study1,F,88,90,Test,User,-,,Recall,Recall2,3523,Card,100,2002,2575,1,1,,1
ArielThomas,0q3o7jzxb2,"Mediated JOLs",1,174,2023-03-15T15:43:35+00:00,5.5989711284637,3,versionB_stim.csv,ReadVersion_Recall.csv,"Read Recall",Read2,KEYS,ROD,Study1,U,100,98,Test,User,-,,Recall,Recall2,4996,Rod,100,3721,3970,1,1,,1
ArielThomas,0q3o7jzxb2,"Mediated JOLs",1,175,2023-03-15T15:44:02+00:00,26.724248886108,3,versionB_stim.csv,ReadVersion_Recall.csv,"Read Recall",Read2,FUZZY,BANG,Study1,U,105,101,Test,User,-,,Recall,Recall2,26200,Hard,25,24755,25226,0,0,,1
ArielThomas,0q3o7jzxb2,"Mediated JOLs",1,176,2023-03-15T15:44:26+00:00,24.252614974976,3,versionB_stim.csv,ReadVersion_Recall.csv,"Read Recall",Read2,LISTEN,FICTION,Study1,U,99,97,Test,User,-,,Recall,Recall2,23787,Hard,0,22468,22934,0,0,,1
ArielThomas,0q3o7jzxb2,"Mediated JOLs",1,177,2023-03-15T15:44:40+00:00,14.347084999084,3,versionB_stim.csv,ReadVersion_Recall.csv,"Read Recall",Read2,MAZE,PHONE,Study1,U,97,93,Test,User,-,,Recall,Recall2,13759,Runner,36.363636363636,8726,12529,0,0,,1
ArielThomas,0q3o7jzxb2,"Mediated JOLs",1,178,2023-03-15T15:45:04+00:00,23.400807142258,3,versionB_stim.csv,ReadVersion_Recall.csv,"Read Recall",Read2,TREE,SYRUP,Study1,M,66,81,Test,User,-,,Recall,Recall2,22783,Greens,18.181818181818,13826,17466,0,0,,1
ArielThomas,0q3o7jzxb2,"Mediated JOLs",1,179,2023-03-15T15:45:13+00:00,9.3921308517456,3,versionB_stim.csv,ReadVersion_Recall.csv,"Read Recall",Read2,WEDDING,FINGER,Study1,M,72,83,Test,User,-,,Recall,Recall2,8907,"Ring ",60,6594,7028,0,0,,1
ArielThomas,0q3o7jzxb2,"Mediated JOLs",1,180,2023-03-15T15:46:16+00:00,62.986258029938,3,versionB_stim.csv,ReadVersion_Recall.csv,"Read Recall",Read2,MULE,DONKEY,Study1,F,85,105,Test,User,-,,Recall,Recall2,62460,Donkey,100,57112,61641,1,1,,1
ArielThomas,0q3o7jzxb2,"Mediated JOLs",1,181,2023-03-15T15:47:56+00:00,100.18679594994,3,versionB_stim.csv,ReadVersion_Recall.csv,"Read Recall",Read2,LITTER,TRASH,Study1,F,76,76,Test,User,-,,Recall,Recall2,99549,Puppies,16.666666666667,97277,98251,0,0,,1
ArielThomas,0q3o7jzxb2,"Mediated JOLs",1,182,2023-03-15T15:48:01+00:00,4.4024569988251,3,versionB_stim.csv,ReadVersion_Recall.csv,"Read Recall",Read2,BAT,BOUNCE,Study1,M,67,82,Test,User,-,,Recall,Recall2,3796,Bounce,100,2009,2842,1,1,,1
ArielThomas,0q3o7jzxb2,"Mediated JOLs",1,183,2023-03-15T15:48:44+00:00,43.411208152771,3,versionB_stim.csv,ReadVersion_Recall.csv,"Read Recall",Read2,WAR,QUIET,Study1,M,63,79,Test,User,-,,Recall,Recall2,42796,Quiet,100,38256,41556,1,1,,1
ArielThomas,0q3o7jzxb2,"Mediated JOLs",1,184,2023-03-15T15:48:53+00:00,8.6669008731842,3,versionB_stim.csv,ReadVersion_Recall.csv,"Read Recall",Read2,WORD,SENTENCE,Study1,F,82,72,Test,User,-,,Recall,Recall2,8095,"Sentence ",100,5168,5955,1,1,,1
ArielThomas,0q3o7jzxb2,"Mediated JOLs",1,185,2023-03-15T15:49:11+00:00,18.440145969391,3,versionB_stim.csv,ReadVersion_Recall.csv,"Read Recall",Read2,SHELL,SHAKE,Study1,U,98,71,Test,User,-,,Recall,Recall2,17868,"Fish ",44.444444444444,15900,16250,0,0,,1
ArielThomas,0q3o7jzxb2,"Mediated JOLs",1,186,2023-03-15T15:49:20+00:00,9.2293710708618,3,versionB_stim.csv,ReadVersion_Recall.csv,"Read Recall",Read2,HYGIENE,CLEAN,Study1,F,83,96,Test,User,-,,Recall,Recall2,8612,Clean,100,7127,7689,1,1,,1
ArielThomas,0q3o7jzxb2,"Mediated JOLs",1,187,2023-03-15T15:49:38+00:00,17.18411898613,3,versionB_stim.csv,ReadVersion_Recall.csv,"Read Recall",Read2,HORSE,WHEEL,Study1,M,69,64,Test,User,-,,Recall,Recall2,16607,Wheel,100,14790,15465,1,1,,1
ArielThomas,0q3o7jzxb2,"Mediated JOLs",1,188,2023-03-15T15:50:09+00:00,31.265002965927,3,versionB_stim.csv,ReadVersion_Recall.csv,"Read Recall",Read2,ROUGH,SILK,Study1,M,65,103,Test,User,-,,Recall,Recall2,30755,Soft,25,29256,29703,0,0,,1
ArielThomas,0q3o7jzxb2,"Mediated JOLs",1,189,2023-03-15T15:50:15+00:00,6.3388431072235,3,versionB_stim.csv,ReadVersion_Recall.csv,"Read Recall",Read2,ROOT,PLANT,Study1,F,80,67,Test,User,-,,Recall,Recall2,5753,Tree,22.222222222222,4009,4718,0,0,,1
ArielThomas,0q3o7jzxb2,"Mediated JOLs",1,190,2023-03-15T15:50:44+00:00,28.715579032898,3,versionB_stim.csv,ReadVersion_Recall.csv,"Read Recall",Read2,CIRCLE,DANCE,Study1,M,68,86,Test,User,-,,Recall,Recall2,28006,"Barrel ",36.363636363636,24394,25838,0,0,,1
ArielThomas,0q3o7jzxb2,"Mediated JOLs",1,191,2023-03-15T15:50:51+00:00,7.5550978183746,3,versionB_stim.csv,ReadVersion_Recall.csv,"Read Recall",Read2,BEACH,BOX,Study1,M,62,63,Test,User,-,,Recall,Recall2,6952,Waves,0,5312,5900,0,0,,1
ArielThomas,0q3o7jzxb2,"Mediated JOLs",1,192,2023-03-15T15:50:59+00:00,8.020916223526,3,versionB_stim.csv,ReadVersion_Recall.csv,"Read Recall",Read2,SIGN,TICK,Study1,U,102,95,Test,User,-,,Recall,Recall2,7426,Paper,0,3306,6488,0,0,,1
ArielThomas,0q3o7jzxb2,"Mediated JOLs",1,193,2023-03-15T15:51:13+00:00,13.819643974304,3,versionB_stim.csv,ReadVersion_Recall.csv,"Read Recall",Read2,DAY,DARK,Study1,M,73,94,Test,User,-,,Recall,Recall2,13149,Month,0,10895,11792,0,0,,1
ArielThomas,0q3o7jzxb2,"Mediated JOLs",1,194,2023-03-15T15:51:31+00:00,17.298933029175,3,versionB_stim.csv,ReadVersion_Recall.csv,"Read Recall",Read2,SCALP,HEAD,Study1,F,78,87,Test,User,-,,Recall,Recall2,16701,Head,100,15136,15657,1,1,,1
ArielThomas,0q3o7jzxb2,"Mediated JOLs",1,195,2023-03-15T15:51:41+00:00,10.875628948212,3,versionB_stim.csv,ReadVersion_Recall.csv,"Read Recall",Read2,MULE,DONKEY,Study1,F,79,77,Test,User,-,,Recall,Recall2,10288,Donkey,100,8688,9402,1,1,,1
ArielThomas,0q3o7jzxb2,"Mediated JOLs",1,196,2023-03-15T15:52:01+00:00,19.98818898201,3,versionB_stim.csv,ReadVersion_Recall.csv,"Read Recall",Read2,HARD,COTTON,Study1,M,75,65,Test,User,-,,Recall,Recall2,19390,Time,20,18067,18401,0,0,,1
ArielThomas,0q3o7jzxb2,"Mediated JOLs",1,197,2023-03-15T15:52:06+00:00,4.7486660480499,3,versionB_stim.csv,ReadVersion_Recall.csv,"Read Recall",Read2,CRY,BOTTLE,Study1,M,71,89,Test,User,-,,Recall,Recall2,3909,Weep,20,2093,2786,0,0,,1
ArielThomas,0q3o7jzxb2,"Mediated JOLs",1,198,2023-03-15T15:52:14+00:00,8.1477308273315,3,versionB_stim.csv,ReadVersion_Recall.csv,"Read Recall",Read2,STRETCH,CLOTH,Study1,U,92,75,Test,User,-,,Recall,Recall2,7508,Out,50,6206,6509,0,0,,1
ArielThomas,0q3o7jzxb2,"Mediated JOLs",1,199,2023-03-15T15:52:22+00:00,7.6319401264191,3,versionB_stim.csv,ReadVersion_Recall.csv,"Read Recall",Read2,ORCHID,FLOWER,Study1,F,89,99,Test,User,-,,Recall,Recall2,7046,Flower,100,5015,5856,1,1,,1
ArielThomas,0q3o7jzxb2,"Mediated JOLs",1,200,2023-03-15T15:52:28+00:00,5.7642829418182,3,versionB_stim.csv,ReadVersion_Recall.csv,"Read Recall",Read2,MIRROR,MAROON,Study1,U,91,91,Test,User,-,,Recall,Recall2,5204,Maroon,100,2053,4099,1,1,,1
ArielThomas,0q3o7jzxb2,"Mediated JOLs",1,201,2023-03-15T15:52:32+00:00,4.7647850513458,3,versionB_stim.csv,ReadVersion_Recall.csv,"Read Recall",Read2,VEHICLE,CHARM,Study1,U,95,70,Test,User,-,,Recall,Recall2,4199,Car,75,2314,3119,0,1,,1
ArielThomas,0q3o7jzxb2,"Mediated JOLs",1,202,2023-03-15T15:52:56+00:00,23.972579956055,3,versionB_stim.csv,ReadVersion_Recall.csv,"Read Recall",Read2,SIP,DRINK,Study1,F,87,69,Test,User,-,,Recall,Recall2,23476,"Drink ",100,18520,19184,1,1,,1
ArielThomas,0q3o7jzxb2,"Mediated JOLs",1,203,2023-03-15T15:53:06+00:00,9.0808589458466,3,versionB_stim.csv,ReadVersion_Recall.csv,"Read Recall",Read2,CAKE,HAND,Study1,U,104,68,Test,User,-,,Recall,Recall2,8635,"Wedding ",18.181818181818,4493,6764,0,0,,1
ArielThomas,0q3o7jzxb2,"Mediated JOLs",1,204,2023-03-15T15:53:17+00:00,11.006972074509,3,versionB_stim.csv,ReadVersion_Recall.csv,"Read Recall",Read2,MEAT,KEYS,Study1,U,96,74,Test,User,-,,Recall,Recall2,10532,"Steak ",22.222222222222,7688,8467,0,0,,1
ArielThomas,0q3o7jzxb2,"Mediated JOLs",1,205,2023-03-15T15:53:24+00:00,7.4385929107666,3,versionB_stim.csv,ReadVersion_Recall.csv,"Read Recall",Read2,TOOTH,HAIR,Study1,M,74,73,Test,User,-,,Recall,Recall2,6964,Dentist,18.181818181818,4869,5990,0,0,,1
ArielThomas,0q3o7jzxb2,"Mediated JOLs",1,206,2023-03-15T15:53:30+00:00,6.2639620304108,3,versionB_stim.csv,ReadVersion_Recall.csv,"Read Recall",Read2,SOON,BELT,Study1,U,101,85,Test,User,-,,Recall,Recall2,5786,Later,44.444444444444,4279,4901,0,0,,1
ArielThomas,0q3o7jzxb2,"Mediated JOLs",1,207,2023-03-15T15:53:38+00:00,7.5076370239258,3,versionB_stim.csv,ReadVersion_Recall.csv,"Read Recall",Read2,LION,STRIPES,Study1,M,61,66,Test,User,-,,Recall,Recall2,7037,Stripes,100,4323,5831,1,1,,1
ArielThomas,0q3o7jzxb2,"Mediated JOLs",1,208,2023-03-15T15:53:51+00:00,13.365972995758,3,versionB_stim.csv,ReadVersion_Recall.csv,"Read Recall",Read2,WAGE,MONEY,Study1,F,77,106,Test,User,-,,Recall,Recall2,12829,Money,100,6500,7538,1,1,,1
ArielThomas,0q3o7jzxb2,"Mediated JOLs",1,209,2023-03-15T15:53:55+00:00,4.0397801399231,3,versionB_stim.csv,ReadVersion_Recall.csv,"Read Recall",Read2,TUNA,FISH,Study1,F,90,88,Test,User,-,,Recall,Recall2,3457,Fish,100,2188,2504,1,1,,1
ArielThomas,0q3o7jzxb2,"Mediated JOLs",1,210,2023-03-15T15:54:01+00:00,5.3589987754822,3,versionB_stim.csv,ReadVersion_Recall.csv,"Read Recall",Read2,TEMPERATURE,MORNING,Study1,U,103,62,Test,User,-,,Recall,Recall2,4802,Weather,14.285714285714,2973,3877,0,0,,1
ArielThomas,0q3o7jzxb2,"Mediated JOLs",1,211,2023-03-15T15:54:03+00:00,2.7186710834503,3,versionB_stim.csv,ReadVersion_Recall.csv,"Read Recall",Read2,,,,,,0,Instruct,User,-,"You have completed this section. Please press Enter.",,Instruct7,2178,,,-1,-1,,,,1
ArielThomas,0q3o7jzxb2,"Mediated JOLs",1,212,2023-03-15T15:54:07+00:00,3.5277070999146,3,versionB_stim.csv,ReadVersion_Recall.csv,"Read Recall",Read2,,,,,,0,Instruct,User,-,"The following screen will ask you a few questions abour your experience today. You must complete these questions to receive credit.",,Instruct8,2931,,,-1,-1,,,,1
