Username,ID,ExperimentName,Session,Trial,Date,TimeDif,"Condition Number","Stimuli File","Order File","Condition Description","Condition Notes",Stimuli*Cue,Stimuli*Answer,Stimuli*Shuffle,"Stimuli*Stimuli Notes",Stimuli*Value,Procedure*Item,"Procedure*Trial Type","Procedure*Max Time","Procedure*Min Time",Procedure*Text,"Procedure*Procedure Notes",Procedure*Shuffle,Response*RT,Response*Response,Response*Accuracy,Response*RTfirst,Response*RTlast,Response*strictAcc,Response*lenientAcc,Response*focus,Response*Focus
TaravionCosey,78kctuhioc,"Mediated JOLs",1,1,2023-03-09T03:35:48+00:00,7.1490910053253,1,versionA_stim.csv,ReadVersion_Recall.csv,"Read Recall",Read1,,,,,,0,Instruct,-,5,"In this section, you will be presented with a series of word pairs. Please study each word pair! Your memory will be tested!",Initial_Instruct,Instruct1,6812,,,-1,-1,,,,1
TaravionCosey,78kctuhioc,"Mediated JOLs",1,2,2023-03-09T03:35:50+00:00,2.3971889019012,1,versionA_stim.csv,ReadVersion_Recall.csv,"Read Recall",Read1,,,,,,0,Instruct,User,-,"You will now begin. Press Enter when you are ready to begin.",,Instruct16,1862,,,-1,-1,,,,1
TaravionCosey,78kctuhioc,"Mediated JOLs",1,3,2023-03-09T03:36:55+00:00,65.227962970734,1,versionA_stim.csv,ReadVersion_Recall.csv,"Read Recall",Read1,SCARE,FRIGHT,BUFFER1,Buffer,4,5,Study,User,-,,Study/JOL,BUFFER,64525,,,-1,-1,,,,0.987
TaravionCosey,78kctuhioc,"Mediated JOLs",1,4,2023-03-09T03:37:03+00:00,7.9637970924377,1,versionA_stim.csv,ReadVersion_Recall.csv,"Read Recall",Read1,TREES,GREEN,BUFFER1,Buffer,1,6,Study,User,-,,Study/JOL,BUFFER,7535,,,-1,-1,,,,1
TaravionCosey,78kctuhioc,"Mediated JOLs",1,5,2023-03-09T03:37:09+00:00,5.7641649246216,1,versionA_stim.csv,ReadVersion_Recall.csv,"Read Recall",Read1,SPACE,JAM,BUFFER1,Buffer,5,2,Study,User,-,,Study/JOL,BUFFER,5292,,,-1,-1,,,,1
TaravionCosey,78kctuhioc,"Mediated JOLs",1,6,2023-03-09T03:37:18+00:00,8.3427650928497,1,versionA_stim.csv,ReadVersion_Recall.csv,"Read Recall",Read1,PEANUT,BUTTER,BUFFER1,Buffer,3,4,Study,User,-,,Study/JOL,BUFFER,7900,,,-1,-1,,,,1
TaravionCosey,78kctuhioc,"Mediated JOLs",1,7,2023-03-09T03:37:27+00:00,9.7181799411774,1,versionA_stim.csv,ReadVersion_Recall.csv,"Read Recall",Read1,PITCHER,CATCHER,BUFFER1,Buffer,2,3,Study,User,-,,Study/JOL,BUFFER,9258,,,-1,-1,,,,1
TaravionCosey,78kctuhioc,"Mediated JOLs",1,8,2023-03-09T03:37:36+00:00,8.7715020179749,1,versionA_stim.csv,ReadVersion_Recall.csv,"Read Recall",Read1,TREE,SYRUP,Study1,M,11,19,Study,User,-,,Study/JOL,"Study Phase",8264,,,-1,-1,,,,1
TaravionCosey,78kctuhioc,"Mediated JOLs",1,9,2023-03-09T03:37:45+00:00,9.4470710754395,1,versionA_stim.csv,ReadVersion_Recall.csv,"Read Recall",Read1,ORCHID,FLOWER,Study1,F,34,28,Study,User,-,,Study/JOL,"Study Phase",8979,,,-1,-1,,,,1
TaravionCosey,78kctuhioc,"Mediated JOLs",1,10,2023-03-09T03:37:53+00:00,7.710914850235,1,versionA_stim.csv,ReadVersion_Recall.csv,"Read Recall",Read1,MULE,DONKEY,Study1,F,24,31,Study,User,-,,Study/JOL,"Study Phase",7067,,,-1,-1,,,,1
TaravionCosey,78kctuhioc,"Mediated JOLs",1,11,2023-03-09T03:38:08+00:00,14.654788970947,1,versionA_stim.csv,ReadVersion_Recall.csv,"Read Recall",Read1,TEMPERATURE,MORNING,Study1,U,48,11,Study,User,-,,Study/JOL,"Study Phase",14219,,,-1,-1,,,,1
TaravionCosey,78kctuhioc,"Mediated JOLs",1,12,2023-03-09T03:38:18+00:00,10.05467915535,1,versionA_stim.csv,ReadVersion_Recall.csv,"Read Recall",Read1,MIRROR,MAROON,Study1,U,36,21,Study,User,-,,Study/JOL,"Study Phase",9701,,,-1,-1,,,,1
TaravionCosey,78kctuhioc,"Mediated JOLs",1,13,2023-03-09T03:38:26+00:00,7.9517450332642,1,versionA_stim.csv,ReadVersion_Recall.csv,"Read Recall",Read1,LITTER,TRASH,Study1,F,21,17,Study,User,-,,Study/JOL,"Study Phase",7560,,,-1,-1,,,,1
TaravionCosey,78kctuhioc,"Mediated JOLs",1,14,2023-03-09T03:38:36+00:00,10.363150835037,1,versionA_stim.csv,ReadVersion_Recall.csv,"Read Recall",Read1,VEHICLE,CHARM,Study1,U,40,22,Study,User,-,,Study/JOL,"Study Phase",9844,,,-1,-1,,,,1
TaravionCosey,78kctuhioc,"Mediated JOLs",1,15,2023-03-09T03:38:46+00:00,9.4175879955292,1,versionA_stim.csv,ReadVersion_Recall.csv,"Read Recall",Read1,LION,STRIPES,Study1,M,6,12,Study,User,-,,Study/JOL,"Study Phase",8939,,,-1,-1,,,,1
TaravionCosey,78kctuhioc,"Mediated JOLs",1,16,2023-03-09T03:38:55+00:00,9.3815500736237,1,versionA_stim.csv,ReadVersion_Recall.csv,"Read Recall",Read1,GIVE,STEAK,Study1,U,38,10,Study,User,-,,Study/JOL,"Study Phase",8731,,,-1,-1,,,,1
TaravionCosey,78kctuhioc,"Mediated JOLs",1,17,2023-03-09T03:39:03+00:00,8.0548079013824,1,versionA_stim.csv,ReadVersion_Recall.csv,"Read Recall",Read1,FUZZY,BANG,Study1,U,50,40,Study,User,-,,Study/JOL,"Study Phase",7667,,,-1,-1,,,,1
TaravionCosey,78kctuhioc,"Mediated JOLs",1,18,2023-03-09T03:39:10+00:00,6.8361780643463,1,versionA_stim.csv,ReadVersion_Recall.csv,"Read Recall",Read1,KEYS,ROD,Study1,U,45,16,Study,User,-,,Study/JOL,"Study Phase",6270,,,-1,-1,,,,1
TaravionCosey,78kctuhioc,"Mediated JOLs",1,19,2023-03-09T03:39:24+00:00,13.619254112244,1,versionA_stim.csv,ReadVersion_Recall.csv,"Read Recall",Read1,MEAT,KEYS,Study1,U,41,18,Study,User,-,,Study/JOL,"Study Phase",13156,,,-1,-1,,,,1
TaravionCosey,78kctuhioc,"Mediated JOLs",1,20,2023-03-09T03:39:30+00:00,6.3350489139557,1,versionA_stim.csv,ReadVersion_Recall.csv,"Read Recall",Read1,ROUGH,SILK,Study1,M,10,36,Study,User,-,,Study/JOL,"Study Phase",5662,,,-1,-1,,,,1
TaravionCosey,78kctuhioc,"Mediated JOLs",1,21,2023-03-09T03:39:42+00:00,12.460704088211,1,versionA_stim.csv,ReadVersion_Recall.csv,"Read Recall",Read1,MULE,DONKEY,Study1,F,30,48,Study,User,-,,Study/JOL,"Study Phase",11906,,,-1,-1,,,,1
TaravionCosey,78kctuhioc,"Mediated JOLs",1,22,2023-03-09T03:39:52+00:00,9.5230069160461,1,versionA_stim.csv,ReadVersion_Recall.csv,"Read Recall",Read1,CIRCLE,DANCE,Study1,M,13,26,Study,User,-,,Study/JOL,"Study Phase",9031,,,-1,-1,,,,1
TaravionCosey,78kctuhioc,"Mediated JOLs",1,23,2023-03-09T03:39:58+00:00,5.841423034668,1,versionA_stim.csv,ReadVersion_Recall.csv,"Read Recall",Read1,TUNA,FISH,Study1,F,35,51,Study,User,-,,Study/JOL,"Study Phase",5492,,,-1,-1,,,,1
TaravionCosey,78kctuhioc,"Mediated JOLs",1,24,2023-03-09T03:40:08+00:00,10.060513973236,1,versionA_stim.csv,ReadVersion_Recall.csv,"Read Recall",Read1,BAT,BOUNCE,Study1,M,12,20,Study,User,-,,Study/JOL,"Study Phase",9467,,,-1,-1,,,,1
TaravionCosey,78kctuhioc,"Mediated JOLs",1,25,2023-03-09T03:40:28+00:00,20.180592060089,1,versionA_stim.csv,ReadVersion_Recall.csv,"Read Recall",Read1,AFFECTION,LOVE,Study1,F,31,35,Study,User,-,,Study/JOL,"Study Phase",19733,,,-1,-1,,,,1
TaravionCosey,78kctuhioc,"Mediated JOLs",1,26,2023-03-09T03:40:37+00:00,8.7585999965668,1,versionA_stim.csv,ReadVersion_Recall.csv,"Read Recall",Read1,WEDDING,FINGER,Study1,M,17,33,Study,User,-,,Study/JOL,"Study Phase",8331,,,-1,-1,,,,1
TaravionCosey,78kctuhioc,"Mediated JOLs",1,27,2023-03-09T03:40:45+00:00,8.1854929924011,1,versionA_stim.csv,ReadVersion_Recall.csv,"Read Recall",Read1,WORD,SENTENCE,Study1,F,27,43,Study,User,-,,Study/JOL,"Study Phase",7585,,,-1,-1,,,,1
TaravionCosey,78kctuhioc,"Mediated JOLs",1,28,2023-03-09T03:40:57+00:00,12.074111938477,1,versionA_stim.csv,ReadVersion_Recall.csv,"Read Recall",Read1,WAGE,MONEY,Study1,F,22,29,Study,User,-,,Study/JOL,"Study Phase",11658,,,-1,-1,,,,1
TaravionCosey,78kctuhioc,"Mediated JOLs",1,29,2023-03-09T03:41:07+00:00,9.6689100265503,1,versionA_stim.csv,ReadVersion_Recall.csv,"Read Recall",Read1,HYGIENE,CLEAN,Study1,F,28,32,Study,User,-,,Study/JOL,"Study Phase",9216,,,-1,-1,,,,1
TaravionCosey,78kctuhioc,"Mediated JOLs",1,30,2023-03-09T03:41:16+00:00,9.3893280029297,1,versionA_stim.csv,ReadVersion_Recall.csv,"Read Recall",Read1,SCALP,HEAD,Study1,F,23,46,Study,User,-,,Study/JOL,"Study Phase",8978,,,-1,-1,,,,1
TaravionCosey,78kctuhioc,"Mediated JOLs",1,31,2023-03-09T03:41:42+00:00,25.600831985474,1,versionA_stim.csv,ReadVersion_Recall.csv,"Read Recall",Read1,LISTEN,FICTION,Study1,U,44,27,Study,User,-,,Study/JOL,"Study Phase",25016,,,-1,-1,,,,1
TaravionCosey,78kctuhioc,"Mediated JOLs",1,32,2023-03-09T03:41:50+00:00,8.3975260257721,1,versionA_stim.csv,ReadVersion_Recall.csv,"Read Recall",Read1,BEACH,BOX,Study1,M,7,42,Study,User,-,,Study/JOL,"Study Phase",7920,,,-1,-1,,,,1
TaravionCosey,78kctuhioc,"Mediated JOLs",1,33,2023-03-09T03:41:58+00:00,8.4042270183563,1,versionA_stim.csv,ReadVersion_Recall.csv,"Read Recall",Read1,MAZE,PHONE,Study1,U,42,38,Study,User,-,,Study/JOL,"Study Phase",7756,,,-1,-1,,,,1
TaravionCosey,78kctuhioc,"Mediated JOLs",1,34,2023-03-09T03:42:09+00:00,10.88601899147,1,versionA_stim.csv,ReadVersion_Recall.csv,"Read Recall",Read1,SIGN,TICK,Study1,U,47,37,Study,User,-,,Study/JOL,"Study Phase",10486,,,-1,-1,,,,1
TaravionCosey,78kctuhioc,"Mediated JOLs",1,35,2023-03-09T03:42:21+00:00,12.079228878021,1,versionA_stim.csv,ReadVersion_Recall.csv,"Read Recall",Read1,CRY,BOTTLE,Study1,M,16,34,Study,User,-,,Study/JOL,"Study Phase",11638,,,-1,-1,,,,1
TaravionCosey,78kctuhioc,"Mediated JOLs",1,36,2023-03-09T03:42:31+00:00,10.039353132248,1,versionA_stim.csv,ReadVersion_Recall.csv,"Read Recall",Read1,CREDIT,CARD,Study1,F,33,15,Study,User,-,,Study/JOL,"Study Phase",9590,,,-1,-1,,,,1
TaravionCosey,78kctuhioc,"Mediated JOLs",1,37,2023-03-09T03:42:41+00:00,9.9493689537048,1,versionA_stim.csv,ReadVersion_Recall.csv,"Read Recall",Read1,HARD,COTTON,Study1,M,20,47,Study,User,-,,Study/JOL,"Study Phase",9506,,,-1,-1,,,,1
TaravionCosey,78kctuhioc,"Mediated JOLs",1,38,2023-03-09T03:42:47+00:00,6.0477058887482,1,versionA_stim.csv,ReadVersion_Recall.csv,"Read Recall",Read1,CAKE,HAND,Study1,U,49,41,Study,User,-,,Study/JOL,"Study Phase",5695,,,-1,-1,,,,1
TaravionCosey,78kctuhioc,"Mediated JOLs",1,39,2023-03-09T03:42:54+00:00,6.9312980175018,1,versionA_stim.csv,ReadVersion_Recall.csv,"Read Recall",Read1,TOOTH,HAIR,Study1,M,19,25,Study,User,-,,Study/JOL,"Study Phase",6275,,,-1,-1,,,,1
TaravionCosey,78kctuhioc,"Mediated JOLs",1,40,2023-03-09T03:43:09+00:00,14.340566158295,1,versionA_stim.csv,ReadVersion_Recall.csv,"Read Recall",Read1,SWAN,BIRD,Study1,F,26,24,Study,User,-,,Study/JOL,"Study Phase",13823,,,-1,-1,,,,1
TaravionCosey,78kctuhioc,"Mediated JOLs",1,41,2023-03-09T03:43:22+00:00,13.783643960953,1,versionA_stim.csv,ReadVersion_Recall.csv,"Read Recall",Read1,CRACKLE,ELECTION,Study1,U,39,8,Study,User,-,,Study/JOL,"Study Phase",13393,,,-1,-1,,,,1
TaravionCosey,78kctuhioc,"Mediated JOLs",1,42,2023-03-09T03:43:31+00:00,8.5557460784912,1,versionA_stim.csv,ReadVersion_Recall.csv,"Read Recall",Read1,SIP,DRINK,Study1,F,32,7,Study,User,-,,Study/JOL,"Study Phase",7953,,,-1,-1,,,,1
TaravionCosey,78kctuhioc,"Mediated JOLs",1,43,2023-03-09T03:43:50+00:00,19.141220808029,1,versionA_stim.csv,ReadVersion_Recall.csv,"Read Recall",Read1,NAP,SLEEP,Study1,F,29,23,Study,User,-,,Study/JOL,"Study Phase",18669,,,-1,-1,,,,1
TaravionCosey,78kctuhioc,"Mediated JOLs",1,44,2023-03-09T03:43:59+00:00,8.5382981300354,1,versionA_stim.csv,ReadVersion_Recall.csv,"Read Recall",Read1,WAR,QUIET,Study1,M,8,45,Study,User,-,,Study/JOL,"Study Phase",8187,,,-1,-1,,,,1
TaravionCosey,78kctuhioc,"Mediated JOLs",1,45,2023-03-09T03:44:21+00:00,22.463305950165,1,versionA_stim.csv,ReadVersion_Recall.csv,"Read Recall",Read1,HORSE,WHEEL,Study1,M,14,49,Study,User,-,,Study/JOL,"Study Phase",21952,,,-1,-1,,,,1
TaravionCosey,78kctuhioc,"Mediated JOLs",1,46,2023-03-09T03:44:31+00:00,9.7862379550934,1,versionA_stim.csv,ReadVersion_Recall.csv,"Read Recall",Read1,SHELL,SHAKE,Study1,U,43,30,Study,User,-,,Study/JOL,"Study Phase",9203,,,-1,-1,,,,1
TaravionCosey,78kctuhioc,"Mediated JOLs",1,47,2023-03-09T03:44:53+00:00,22.386225938797,1,versionA_stim.csv,ReadVersion_Recall.csv,"Read Recall",Read1,CEILING,CARPET,Study1,M,15,44,Study,User,-,,Study/JOL,"Study Phase",21744,,,-1,-1,,,,1
TaravionCosey,78kctuhioc,"Mediated JOLs",1,48,2023-03-09T03:45:12+00:00,18.863222122192,1,versionA_stim.csv,ReadVersion_Recall.csv,"Read Recall",Read1,STRETCH,CLOTH,Study1,U,37,39,Study,User,-,,Study/JOL,"Study Phase",18318,,,-1,-1,,,,1
TaravionCosey,78kctuhioc,"Mediated JOLs",1,49,2023-03-09T03:45:32+00:00,19.730798959732,1,versionA_stim.csv,ReadVersion_Recall.csv,"Read Recall",Read1,SOON,BELT,Study1,U,46,14,Study,User,-,,Study/JOL,"Study Phase",19179,,,-1,-1,,,,1
TaravionCosey,78kctuhioc,"Mediated JOLs",1,50,2023-03-09T03:45:41+00:00,9.5509629249573,1,versionA_stim.csv,ReadVersion_Recall.csv,"Read Recall",Read1,BIRTHDAY,PIE,Study1,M,9,13,Study,User,-,,Study/JOL,"Study Phase",9199,,,-1,-1,,,,1
TaravionCosey,78kctuhioc,"Mediated JOLs",1,51,2023-03-09T03:45:57+00:00,15.756961107254,1,versionA_stim.csv,ReadVersion_Recall.csv,"Read Recall",Read1,DAY,DARK,Study1,M,18,9,Study,User,-,,Study/JOL,"Study Phase",15341,,,-1,-1,,,,1
TaravionCosey,78kctuhioc,"Mediated JOLs",1,52,2023-03-09T03:46:12+00:00,14.731688976288,1,versionA_stim.csv,ReadVersion_Recall.csv,"Read Recall",Read1,ROOT,PLANT,Study1,F,25,50,Study,User,-,,Study/JOL,"Study Phase",14267,,,-1,-1,,,,1
TaravionCosey,78kctuhioc,"Mediated JOLs",1,53,2023-03-09T03:46:25+00:00,12.817965984344,1,versionA_stim.csv,ReadVersion_Recall.csv,"Read Recall",Read1,ICE,FROZEN,BUFFER4,Buffer,109,111,Study,User,-,,Study/JOL,BUFFER2,12392,,,-1,-1,,,,1
TaravionCosey,78kctuhioc,"Mediated JOLs",1,54,2023-03-09T03:46:38+00:00,12.772439002991,1,versionA_stim.csv,ReadVersion_Recall.csv,"Read Recall",Read1,OCTOBER,SPOOKY,BUFFER3,Buffer,60,60,Study,User,-,,Study/JOL,BUFFER2,12298,,,-1,-1,,,,1
TaravionCosey,78kctuhioc,"Mediated JOLs",1,55,2023-03-09T03:46:50+00:00,12.203071117401,1,versionA_stim.csv,ReadVersion_Recall.csv,"Read Recall",Read1,SPRING,MARCH,BUFFER3,Buffer,59,58,Study,User,-,,Study/JOL,BUFFER2,11842,,,-1,-1,,,,1
TaravionCosey,78kctuhioc,"Mediated JOLs",1,56,2023-03-09T03:47:21+00:00,31.062006950378,1,versionA_stim.csv,ReadVersion_Recall.csv,"Read Recall",Read1,MALT,CHOCOLATE,BUFFER2,Buffer,53,52,Study,User,-,,Study/JOL,BUFFER2,30631,,,-1,-1,,,,1
TaravionCosey,78kctuhioc,"Mediated JOLs",1,57,2023-03-09T03:47:35+00:00,13.953212022781,1,versionA_stim.csv,ReadVersion_Recall.csv,"Read Recall",Read1,THING,STUFF,BUFFER2,Buffer,55,53,Study,User,-,,Study/JOL,BUFFER2,13445,,,-1,-1,,,,1
TaravionCosey,78kctuhioc,"Mediated JOLs",1,58,2023-03-09T03:47:41+00:00,5.9300999641418,1,versionA_stim.csv,ReadVersion_Recall.csv,"Read Recall",Read1,,,,,,0,Instruct,User,-,"You have completed this section. Please press Enter.",Filler_Instruction,Instruct2,5438,,,-1,-1,,,,1
TaravionCosey,78kctuhioc,"Mediated JOLs",1,59,2023-03-09T03:49:41+00:00,120.73560905457,1,versionA_stim.csv,ReadVersion_Recall.csv,"Read Recall",Read1,,,,,,0,FreeRecall,120,120,"Please list the 50 US states in alphabetical order. The task will automatically advance to the next screen after two minutes.",,Filler1,120004,"Alabama Alaska Arizona Arkansas California Colorado Connecticut Delaware Florida Georgia Hawaii Idaho Illinois Indiana Iowa Kansas Kentucky Louisiana Maine Maryland Massachusetts Michigan Minnesota Mississippi Missouri Montana Nebraska Nevada ",0,-1,-1,0,0,,0.653
TaravionCosey,78kctuhioc,"Mediated JOLs",1,60,2023-03-09T03:50:06+00:00,24.639688968658,1,versionA_stim.csv,ReadVersion_Recall.csv,"Read Recall",Read1,,,,,,0,Instruct,-,10,"You will now be presented with the first word from each of the previously studied item pairs. Please type the missing word. If you do not know the word, you may guess or press Enter to skip forward to the next pair.",,Instruct3,13380,,,-1,-1,,,,1
TaravionCosey,78kctuhioc,"Mediated JOLs",1,61,2023-03-09T03:50:26+00:00,19.4366979599,1,versionA_stim.csv,ReadVersion_Recall.csv,"Read Recall",Read1,ORCHID,FLOWER,Study1,F,34,28,Test,User,-,,Recall,Recall1,18906,Flower,100,-1,-1,1,1,,1
TaravionCosey,78kctuhioc,"Mediated JOLs",1,62,2023-03-09T03:50:58+00:00,32.144860982895,1,versionA_stim.csv,ReadVersion_Recall.csv,"Read Recall",Read1,SHELL,SHAKE,Study1,U,43,30,Test,User,-,,Recall,Recall1,31660,"Shake ",100,-1,-1,1,1,,1
TaravionCosey,78kctuhioc,"Mediated JOLs",1,63,2023-03-09T03:52:07+00:00,68.882941007614,1,versionA_stim.csv,ReadVersion_Recall.csv,"Read Recall",Read1,ROUGH,SILK,Study1,M,10,36,Test,User,-,,Recall,Recall1,68447,Silk,100,-1,-1,1,1,,1
TaravionCosey,78kctuhioc,"Mediated JOLs",1,64,2023-03-09T03:53:00+00:00,53.771548986435,1,versionA_stim.csv,ReadVersion_Recall.csv,"Read Recall",Read1,HYGIENE,CLEAN,Study1,F,28,32,Test,User,-,,Recall,Recall1,52937,"Clean ",100,-1,-1,1,1,,1
TaravionCosey,78kctuhioc,"Mediated JOLs",1,65,2023-03-09T03:53:36+00:00,35.457164049149,1,versionA_stim.csv,ReadVersion_Recall.csv,"Read Recall",Read1,WAR,QUIET,Study1,M,8,45,Test,User,-,,Recall,Recall1,34661,Quiet,100,-1,-1,1,1,,1
TaravionCosey,78kctuhioc,"Mediated JOLs",1,66,2023-03-09T03:54:29+00:00,53.174161911011,1,versionA_stim.csv,ReadVersion_Recall.csv,"Read Recall",Read1,WEDDING,FINGER,Study1,M,17,33,Test,User,-,,Recall,Recall1,52649,"Finger ",100,-1,-1,1,1,,1
TaravionCosey,78kctuhioc,"Mediated JOLs",1,67,2023-03-09T03:55:03+00:00,34.225337982178,1,versionA_stim.csv,ReadVersion_Recall.csv,"Read Recall",Read1,LION,STRIPES,Study1,M,6,12,Test,User,-,,Recall,Recall1,33742,"Stripes ",100,-1,-1,1,1,,1
TaravionCosey,78kctuhioc,"Mediated JOLs",1,68,2023-03-09T03:55:24+00:00,20.579521179199,1,versionA_stim.csv,ReadVersion_Recall.csv,"Read Recall",Read1,DAY,DARK,Study1,M,18,9,Test,User,-,,Recall,Recall1,19906,Dark,100,-1,-1,1,1,,1
TaravionCosey,78kctuhioc,"Mediated JOLs",1,69,2023-03-09T03:57:06+00:00,101.99112796783,1,versionA_stim.csv,ReadVersion_Recall.csv,"Read Recall",Read1,STRETCH,CLOTH,Study1,U,37,39,Test,User,-,,Recall,Recall1,101550,Cloth,100,-1,-1,1,1,,1
TaravionCosey,78kctuhioc,"Mediated JOLs",1,70,2023-03-09T03:57:16+00:00,9.778373003006,1,versionA_stim.csv,ReadVersion_Recall.csv,"Read Recall",Read1,AFFECTION,LOVE,Study1,F,31,35,Test,User,-,,Recall,Recall1,9307,Love,100,-1,-1,1,1,,1
TaravionCosey,78kctuhioc,"Mediated JOLs",1,71,2023-03-09T03:57:55+00:00,39.827734947205,1,versionA_stim.csv,ReadVersion_Recall.csv,"Read Recall",Read1,HORSE,WHEEL,Study1,M,14,49,Test,User,-,,Recall,Recall1,39404,"Wheel ",100,-1,-1,1,1,,1
TaravionCosey,78kctuhioc,"Mediated JOLs",1,72,2023-03-09T03:58:11+00:00,15.676326990128,1,versionA_stim.csv,ReadVersion_Recall.csv,"Read Recall",Read1,TREE,SYRUP,Study1,M,11,19,Test,User,-,,Recall,Recall1,15227,"Green ",20,-1,-1,0,0,,1
TaravionCosey,78kctuhioc,"Mediated JOLs",1,73,2023-03-09T03:59:07+00:00,55.664849996567,1,versionA_stim.csv,ReadVersion_Recall.csv,"Read Recall",Read1,SIGN,TICK,Study1,U,47,37,Test,User,-,,Recall,Recall1,55307,Tick,100,-1,-1,1,1,,1
TaravionCosey,78kctuhioc,"Mediated JOLs",1,74,2023-03-09T03:59:18+00:00,11.179573059082,1,versionA_stim.csv,ReadVersion_Recall.csv,"Read Recall",Read1,SCALP,HEAD,Study1,F,23,46,Test,User,-,,Recall,Recall1,10727,Head,100,-1,-1,1,1,,1
TaravionCosey,78kctuhioc,"Mediated JOLs",1,75,2023-03-09T03:59:28+00:00,9.9816110134125,1,versionA_stim.csv,ReadVersion_Recall.csv,"Read Recall",Read1,MULE,DONKEY,Study1,F,24,31,Test,User,-,,Recall,Recall1,9504,"Donkey ",100,-1,-1,1,1,,1
TaravionCosey,78kctuhioc,"Mediated JOLs",1,76,2023-03-09T03:59:52+00:00,23.995290994644,1,versionA_stim.csv,ReadVersion_Recall.csv,"Read Recall",Read1,TOOTH,HAIR,Study1,M,19,25,Test,User,-,,Recall,Recall1,23563,Hair,100,-1,-1,1,1,,1
TaravionCosey,78kctuhioc,"Mediated JOLs",1,77,2023-03-09T04:00:02+00:00,9.7373998165131,1,versionA_stim.csv,ReadVersion_Recall.csv,"Read Recall",Read1,CAKE,HAND,Study1,U,49,41,Test,User,-,,Recall,Recall1,9400,Hand,100,-1,-1,1,1,,1
TaravionCosey,78kctuhioc,"Mediated JOLs",1,78,2023-03-09T04:00:12+00:00,10.76244020462,1,versionA_stim.csv,ReadVersion_Recall.csv,"Read Recall",Read1,CIRCLE,DANCE,Study1,M,13,26,Test,User,-,,Recall,Recall1,9722,"Dance ",100,-1,-1,1,1,,1
TaravionCosey,78kctuhioc,"Mediated JOLs",1,79,2023-03-09T04:00:32+00:00,19.612993955612,1,versionA_stim.csv,ReadVersion_Recall.csv,"Read Recall",Read1,CRY,BOTTLE,Study1,M,16,34,Test,User,-,,Recall,Recall1,19156,"Bottle ",100,-1,-1,1,1,,1
TaravionCosey,78kctuhioc,"Mediated JOLs",1,80,2023-03-09T04:00:58+00:00,25.914634943008,1,versionA_stim.csv,ReadVersion_Recall.csv,"Read Recall",Read1,SWAN,BIRD,Study1,F,26,24,Test,User,-,,Recall,Recall1,25292,Bird,100,-1,-1,1,1,,1
TaravionCosey,78kctuhioc,"Mediated JOLs",1,81,2023-03-09T04:01:21+00:00,22.801809072495,1,versionA_stim.csv,ReadVersion_Recall.csv,"Read Recall",Read1,LITTER,TRASH,Study1,F,21,17,Test,User,-,,Recall,Recall1,22152,Trash,100,-1,-1,1,1,,1
TaravionCosey,78kctuhioc,"Mediated JOLs",1,82,2023-03-09T04:01:41+00:00,20.174033880234,1,versionA_stim.csv,ReadVersion_Recall.csv,"Read Recall",Read1,NAP,SLEEP,Study1,F,29,23,Test,User,-,,Recall,Recall1,19198,"Sleep ",100,-1,-1,1,1,,1
TaravionCosey,78kctuhioc,"Mediated JOLs",1,83,2023-03-09T04:02:06+00:00,24.976290941238,1,versionA_stim.csv,ReadVersion_Recall.csv,"Read Recall",Read1,MEAT,KEYS,Study1,U,41,18,Test,User,-,,Recall,Recall1,24531,"Vegetables ",28.571428571429,-1,-1,0,0,,1
TaravionCosey,78kctuhioc,"Mediated JOLs",1,84,2023-03-09T04:02:21+00:00,14.935685157776,1,versionA_stim.csv,ReadVersion_Recall.csv,"Read Recall",Read1,ROOT,PLANT,Study1,F,25,50,Test,User,-,,Recall,Recall1,14498,Plant,100,-1,-1,1,1,,1
TaravionCosey,78kctuhioc,"Mediated JOLs",1,85,2023-03-09T04:02:44+00:00,22.933079957962,1,versionA_stim.csv,ReadVersion_Recall.csv,"Read Recall",Read1,SOON,BELT,Study1,U,46,14,Test,User,-,,Recall,Recall1,22325,Belt,100,-1,-1,1,1,,1
TaravionCosey,78kctuhioc,"Mediated JOLs",1,86,2023-03-09T04:02:52+00:00,8.1919100284576,1,versionA_stim.csv,ReadVersion_Recall.csv,"Read Recall",Read1,MULE,DONKEY,Study1,F,30,48,Test,User,-,,Recall,Recall1,7391,"Donkey ",100,-1,-1,1,1,,1
TaravionCosey,78kctuhioc,"Mediated JOLs",1,87,2023-03-09T04:03:04+00:00,12.106730937958,1,versionA_stim.csv,ReadVersion_Recall.csv,"Read Recall",Read1,BEACH,BOX,Study1,M,7,42,Test,User,-,,Recall,Recall1,11681,Box,100,-1,-1,1,1,,1
TaravionCosey,78kctuhioc,"Mediated JOLs",1,88,2023-03-09T04:03:17+00:00,13.352719068527,1,versionA_stim.csv,ReadVersion_Recall.csv,"Read Recall",Read1,TEMPERATURE,MORNING,Study1,U,48,11,Test,User,-,,Recall,Recall1,12978,Hot,20,-1,-1,0,0,,1
TaravionCosey,78kctuhioc,"Mediated JOLs",1,89,2023-03-09T04:03:32+00:00,14.636784076691,1,versionA_stim.csv,ReadVersion_Recall.csv,"Read Recall",Read1,VEHICLE,CHARM,Study1,U,40,22,Test,User,-,,Recall,Recall1,14217,Charm,100,-1,-1,1,1,,1
TaravionCosey,78kctuhioc,"Mediated JOLs",1,90,2023-03-09T04:03:44+00:00,11.885538816452,1,versionA_stim.csv,ReadVersion_Recall.csv,"Read Recall",Read1,FUZZY,BANG,Study1,U,50,40,Test,User,-,,Recall,Recall1,11309,Bong,75,-1,-1,0,1,,1
TaravionCosey,78kctuhioc,"Mediated JOLs",1,91,2023-03-09T04:04:07+00:00,23.053158044815,1,versionA_stim.csv,ReadVersion_Recall.csv,"Read Recall",Read1,CRACKLE,ELECTION,Study1,U,39,8,Test,User,-,,Recall,Recall1,22526,Election,100,-1,-1,1,1,,1
TaravionCosey,78kctuhioc,"Mediated JOLs",1,92,2023-03-09T04:04:17+00:00,9.8287220001221,1,versionA_stim.csv,ReadVersion_Recall.csv,"Read Recall",Read1,TUNA,FISH,Study1,F,35,51,Test,User,-,,Recall,Recall1,9404,Fish,100,-1,-1,1,1,,1
TaravionCosey,78kctuhioc,"Mediated JOLs",1,93,2023-03-09T04:04:25+00:00,8.1463150978088,1,versionA_stim.csv,ReadVersion_Recall.csv,"Read Recall",Read1,WAGE,MONEY,Study1,F,22,29,Test,User,-,,Recall,Recall1,7718,"Money ",100,-1,-1,1,1,,1
TaravionCosey,78kctuhioc,"Mediated JOLs",1,94,2023-03-09T04:04:38+00:00,13.321238040924,1,versionA_stim.csv,ReadVersion_Recall.csv,"Read Recall",Read1,BAT,BOUNCE,Study1,M,12,20,Test,User,-,,Recall,Recall1,12573,"Bounce ",100,-1,-1,1,1,,1
TaravionCosey,78kctuhioc,"Mediated JOLs",1,95,2023-03-09T04:05:01+00:00,23.130685806274,1,versionA_stim.csv,ReadVersion_Recall.csv,"Read Recall",Read1,GIVE,STEAK,Study1,U,38,10,Test,User,-,,Recall,Recall1,22643,Steak,100,-1,-1,1,1,,1
TaravionCosey,78kctuhioc,"Mediated JOLs",1,96,2023-03-09T04:05:27+00:00,25.834136962891,1,versionA_stim.csv,ReadVersion_Recall.csv,"Read Recall",Read1,SIP,DRINK,Study1,F,32,7,Test,User,-,,Recall,Recall1,25334,Drink,100,-1,-1,1,1,,1
TaravionCosey,78kctuhioc,"Mediated JOLs",1,97,2023-03-09T04:05:48+00:00,20.862749099731,1,versionA_stim.csv,ReadVersion_Recall.csv,"Read Recall",Read1,BIRTHDAY,PIE,Study1,M,9,13,Test,User,-,,Recall,Recall1,19989,"Cake ",28.571428571429,-1,-1,0,0,,1
TaravionCosey,78kctuhioc,"Mediated JOLs",1,98,2023-03-09T04:05:54+00:00,6.0211119651794,1,versionA_stim.csv,ReadVersion_Recall.csv,"Read Recall",Read1,KEYS,ROD,Study1,U,45,16,Test,User,-,,Recall,Recall1,5614,Car,33.333333333333,-1,-1,0,0,,1
TaravionCosey,78kctuhioc,"Mediated JOLs",1,99,2023-03-09T04:06:14+00:00,19.983974933624,1,versionA_stim.csv,ReadVersion_Recall.csv,"Read Recall",Read1,MAZE,PHONE,Study1,U,42,38,Test,User,-,,Recall,Recall1,19515,"Phone ",100,-1,-1,1,1,,1
TaravionCosey,78kctuhioc,"Mediated JOLs",1,100,2023-03-09T04:06:34+00:00,19.860005140305,1,versionA_stim.csv,ReadVersion_Recall.csv,"Read Recall",Read1,MIRROR,MAROON,Study1,U,36,21,Test,User,-,,Recall,Recall1,18932,"Maroon ",100,-1,-1,1,1,,1
TaravionCosey,78kctuhioc,"Mediated JOLs",1,101,2023-03-09T04:06:57+00:00,23.134394884109,1,versionA_stim.csv,ReadVersion_Recall.csv,"Read Recall",Read1,CREDIT,CARD,Study1,F,33,15,Test,User,-,,Recall,Recall1,22543,Card,100,-1,-1,1,1,,1
TaravionCosey,78kctuhioc,"Mediated JOLs",1,102,2023-03-09T04:07:08+00:00,10.718481063843,1,versionA_stim.csv,ReadVersion_Recall.csv,"Read Recall",Read1,CEILING,CARPET,Study1,M,15,44,Test,User,-,,Recall,Recall1,10254,"Carpet ",100,-1,-1,1,1,,1
TaravionCosey,78kctuhioc,"Mediated JOLs",1,103,2023-03-09T04:07:22+00:00,14.027734041214,1,versionA_stim.csv,ReadVersion_Recall.csv,"Read Recall",Read1,HARD,COTTON,Study1,M,20,47,Test,User,-,,Recall,Recall1,13672,Soft,40,-1,-1,0,0,,1
TaravionCosey,78kctuhioc,"Mediated JOLs",1,104,2023-03-09T04:07:34+00:00,12.121586084366,1,versionA_stim.csv,ReadVersion_Recall.csv,"Read Recall",Read1,WORD,SENTENCE,Study1,F,27,43,Test,User,-,,Recall,Recall1,11710,"Sentence ",100,-1,-1,1,1,,1
TaravionCosey,78kctuhioc,"Mediated JOLs",1,105,2023-03-09T04:08:22+00:00,47.922564983368,1,versionA_stim.csv,ReadVersion_Recall.csv,"Read Recall",Read1,LISTEN,FICTION,Study1,U,44,27,Test,User,-,,Recall,Recall1,47436,"Fiction ",100,-1,-1,1,1,,1
TaravionCosey,78kctuhioc,"Mediated JOLs",1,106,2023-03-09T04:08:36+00:00,13.739706993103,1,versionA_stim.csv,ReadVersion_Recall.csv,"Read Recall",Read1,,,,,,0,Instruct,-,10,"You will now be presented with a new set of word pairs. Please study each pair. Remember that your memory will be tested! When finished, press Enter to move to the next pair.",Initial_Instruct,Instruct4,13292,,,-1,-1,,,,1
TaravionCosey,78kctuhioc,"Mediated JOLs",1,107,2023-03-09T04:08:40+00:00,3.9635899066925,1,versionA_stim.csv,ReadVersion_Recall.csv,"Read Recall",Read1,,,,,,0,Instruct,User,-,"Press Enter when you are readty to begin",,Instruct11,3482,,,-1,-1,,,,1
TaravionCosey,78kctuhioc,"Mediated JOLs",1,108,2023-03-09T04:09:28+00:00,48.543483972549,1,versionA_stim.csv,ReadVersion_Recall.csv,"Read Recall",Read1,NOODLE,STRING,BUFFER4,Buffer,107,107,Study,User,-,,Study/JOL,BUFFER2,48153,,,-1,-1,,,,1
TaravionCosey,78kctuhioc,"Mediated JOLs",1,109,2023-03-09T04:10:21+00:00,52.474761009216,1,versionA_stim.csv,ReadVersion_Recall.csv,"Read Recall",Read1,CARROT,POTATO,BUFFER4,Buffer,106,110,Study,User,-,,Study/JOL,BUFFER2,51969,,,-1,-1,,,,1
TaravionCosey,78kctuhioc,"Mediated JOLs",1,110,2023-03-09T04:10:34+00:00,13.837177991867,1,versionA_stim.csv,ReadVersion_Recall.csv,"Read Recall",Read1,CAMP,ADVENTURE,BUFFER4,Buffer,110,108,Study,User,-,,Study/JOL,BUFFER2,13305,,,-1,-1,,,,1
TaravionCosey,78kctuhioc,"Mediated JOLs",1,111,2023-03-09T04:10:43+00:00,8.1683189868927,1,versionA_stim.csv,ReadVersion_Recall.csv,"Read Recall",Read1,MONTH,YEAR,BUFFER3,Buffer,57,61,Study,User,-,,Study/JOL,BUFFER2,7710,,,-1,-1,,,,1
TaravionCosey,78kctuhioc,"Mediated JOLs",1,112,2023-03-09T04:10:57+00:00,14.208332061768,1,versionA_stim.csv,ReadVersion_Recall.csv,"Read Recall",Read1,TOOL,SHED,BUFFER3,Buffer,58,57,Study,User,-,,Study/JOL,BUFFER2,13766,,,-1,-1,,,,1
TaravionCosey,78kctuhioc,"Mediated JOLs",1,113,2023-03-09T04:11:29+00:00,32.708915948868,1,versionA_stim.csv,ReadVersion_Recall.csv,"Read Recall",Read1,CHISEL,HAMMER,Study2,F,78,71,Study,User,-,,Study/JOL,"Study Phase2",32208,,,-1,-1,,,,1
TaravionCosey,78kctuhioc,"Mediated JOLs",1,114,2023-03-09T04:11:43+00:00,13.277527093887,1,versionA_stim.csv,ReadVersion_Recall.csv,"Read Recall",Read1,CHERRY,RED,Study2,F,80,76,Study,User,-,,Study/JOL,"Study Phase2",12832,,,-1,-1,,,,1
TaravionCosey,78kctuhioc,"Mediated JOLs",1,115,2023-03-09T04:11:54+00:00,11.30068397522,1,versionA_stim.csv,ReadVersion_Recall.csv,"Read Recall",Read1,PUSH,CLUTTER,Study2,U,96,69,Study,User,-,,Study/JOL,"Study Phase2",10794,,,-1,-1,,,,1
TaravionCosey,78kctuhioc,"Mediated JOLs",1,116,2023-03-09T04:12:03+00:00,8.6545870304108,1,versionA_stim.csv,ReadVersion_Recall.csv,"Read Recall",Read1,KING,VASE,Study2,U,91,89,Study,User,-,,Study/JOL,"Study Phase2",8297,,,-1,-1,,,,1
TaravionCosey,78kctuhioc,"Mediated JOLs",1,117,2023-03-09T04:12:21+00:00,18.627488851547,1,versionA_stim.csv,ReadVersion_Recall.csv,"Read Recall",Read1,RAKE,SEED,Study2,M,69,95,Study,User,-,,Study/JOL,"Study Phase2",18234,,,-1,-1,,,,1
TaravionCosey,78kctuhioc,"Mediated JOLs",1,118,2023-03-09T04:12:31+00:00,9.2754621505737,1,versionA_stim.csv,ReadVersion_Recall.csv,"Read Recall",Read1,BRIDGE,WATER,Study2,F,90,66,Study,User,-,,Study/JOL,"Study Phase2",8834,,,-1,-1,,,,1
TaravionCosey,78kctuhioc,"Mediated JOLs",1,119,2023-03-09T04:12:37+00:00,6.7428569793701,1,versionA_stim.csv,ReadVersion_Recall.csv,"Read Recall",Read1,CHOP,CUT,Study2,F,77,81,Study,User,-,,Study/JOL,"Study Phase2",6388,,,-1,-1,,,,1
TaravionCosey,78kctuhioc,"Mediated JOLs",1,120,2023-03-09T04:12:45+00:00,7.8352138996124,1,versionA_stim.csv,ReadVersion_Recall.csv,"Read Recall",Read1,TRAP,CAVE,Study2,M,70,85,Study,User,-,,Study/JOL,"Study Phase2",7221,,,-1,-1,,,,1
TaravionCosey,78kctuhioc,"Mediated JOLs",1,121,2023-03-09T04:12:54+00:00,8.3093571662903,1,versionA_stim.csv,ReadVersion_Recall.csv,"Read Recall",Read1,SICK,HIDE,Study2,U,100,98,Study,User,-,,Study/JOL,"Study Phase2",7910,,,-1,-1,,,,1
TaravionCosey,78kctuhioc,"Mediated JOLs",1,122,2023-03-09T04:13:01+00:00,7.6436009407043,1,versionA_stim.csv,ReadVersion_Recall.csv,"Read Recall",Read1,SOAP,DRINK,Study2,M,67,99,Study,User,-,,Study/JOL,"Study Phase2",7266,,,-1,-1,,,,1
TaravionCosey,78kctuhioc,"Mediated JOLs",1,123,2023-03-09T04:13:12+00:00,11.217479944229,1,versionA_stim.csv,ReadVersion_Recall.csv,"Read Recall",Read1,RAZOR,MUSCLE,Study2,M,75,96,Study,User,-,,Study/JOL,"Study Phase2",10433,,,-1,-1,,,,1
TaravionCosey,78kctuhioc,"Mediated JOLs",1,124,2023-03-09T04:13:24+00:00,11.662840127945,1,versionA_stim.csv,ReadVersion_Recall.csv,"Read Recall",Read1,INCENSE,SMELL,Study2,F,83,74,Study,User,-,,Study/JOL,"Study Phase2",11197,,,-1,-1,,,,1
TaravionCosey,78kctuhioc,"Mediated JOLs",1,125,2023-03-09T04:13:34+00:00,9.6778609752655,1,versionA_stim.csv,ReadVersion_Recall.csv,"Read Recall",Read1,HERD,COW,Study2,F,88,97,Study,User,-,,Study/JOL,"Study Phase2",9159,,,-1,-1,,,,1
TaravionCosey,78kctuhioc,"Mediated JOLs",1,126,2023-03-09T04:13:48+00:00,13.838642835617,1,versionA_stim.csv,ReadVersion_Recall.csv,"Read Recall",Read1,OVEN,BASKET,Study2,M,71,78,Study,User,-,,Study/JOL,"Study Phase2",13249,,,-1,-1,,,,1
TaravionCosey,78kctuhioc,"Mediated JOLs",1,127,2023-03-09T04:14:33+00:00,45.279791116714,1,versionA_stim.csv,ReadVersion_Recall.csv,"Read Recall",Read1,LEAGUE,BASEBALL,Study2,F,84,82,Study,User,-,,Study/JOL,"Study Phase2",10177,,,-1,-1,,,,1
TaravionCosey,78kctuhioc,"Mediated JOLs",1,128,2023-03-09T04:14:46+00:00,13.04131603241,1,versionA_stim.csv,ReadVersion_Recall.csv,"Read Recall",Read1,DOCUMENT,PAPER,Study2,F,82,84,Study,User,-,,Study/JOL,"Study Phase2",12727,,,-1,-1,,,,1
TaravionCosey,78kctuhioc,"Mediated JOLs",1,129,2023-03-09T04:14:58+00:00,12.28342294693,1,versionA_stim.csv,ReadVersion_Recall.csv,"Read Recall",Read1,REALITY,ISLAND,Study2,M,64,91,Study,User,-,,Study/JOL,"Study Phase2",11728,,,-1,-1,,,,1
TaravionCosey,78kctuhioc,"Mediated JOLs",1,130,2023-03-09T04:15:06+00:00,8.3269279003143,1,versionA_stim.csv,ReadVersion_Recall.csv,"Read Recall",Read1,LEASE,TOIL,Study2,U,101,73,Study,User,-,,Study/JOL,"Study Phase2",7895,,,-1,-1,,,,1
TaravionCosey,78kctuhioc,"Mediated JOLs",1,131,2023-03-09T04:15:15+00:00,8.3773400783539,1,versionA_stim.csv,ReadVersion_Recall.csv,"Read Recall",Read1,ART,WOLF,Study2,U,93,70,Study,User,-,,Study/JOL,"Study Phase2",7961,,,-1,-1,,,,1
TaravionCosey,78kctuhioc,"Mediated JOLs",1,132,2023-03-09T04:15:27+00:00,11.667481899261,1,versionA_stim.csv,ReadVersion_Recall.csv,"Read Recall",Read1,ARTERY,BRONZE,Study2,U,103,65,Study,User,-,,Study/JOL,"Study Phase2",11062,,,-1,-1,,,,1
TaravionCosey,78kctuhioc,"Mediated JOLs",1,133,2023-03-09T04:15:36+00:00,9.1844100952148,1,versionA_stim.csv,ReadVersion_Recall.csv,"Read Recall",Read1,VALLEY,PEAK,Study2,M,73,67,Study,User,-,,Study/JOL,"Study Phase2",8739,,,-1,-1,,,,1
TaravionCosey,78kctuhioc,"Mediated JOLs",1,134,2023-03-09T04:16:07+00:00,31.403213977814,1,versionA_stim.csv,ReadVersion_Recall.csv,"Read Recall",Read1,NURSE,LAWYER,Study2,M,66,77,Study,User,-,,Study/JOL,"Study Phase2",30842,,,-1,-1,,,,1
TaravionCosey,78kctuhioc,"Mediated JOLs",1,135,2023-03-09T04:16:18+00:00,11.271409034729,1,versionA_stim.csv,ReadVersion_Recall.csv,"Read Recall",Read1,WASP,BUG,Study2,F,89,62,Study,User,-,,Study/JOL,"Study Phase2",10821,,,-1,-1,,,,1
TaravionCosey,78kctuhioc,"Mediated JOLs",1,136,2023-03-09T04:16:27+00:00,8.5546200275421,1,versionA_stim.csv,ReadVersion_Recall.csv,"Read Recall",Read1,CACTUS,PLANT,Study2,F,76,75,Study,User,-,,Study/JOL,"Study Phase2",8126,,,-1,-1,,,,1
TaravionCosey,78kctuhioc,"Mediated JOLs",1,137,2023-03-09T04:16:57+00:00,30.093613862991,1,versionA_stim.csv,ReadVersion_Recall.csv,"Read Recall",Read1,EYES,SMELL,Study2,M,65,87,Study,User,-,,Study/JOL,"Study Phase2",28949,,,-1,-1,,,,1
TaravionCosey,78kctuhioc,"Mediated JOLs",1,138,2023-03-09T04:17:05+00:00,7.7200961112976,1,versionA_stim.csv,ReadVersion_Recall.csv,"Read Recall",Read1,CASH,LEG,Study2,U,105,93,Study,User,-,,Study/JOL,"Study Phase2",6620,,,-1,-1,,,,1
TaravionCosey,78kctuhioc,"Mediated JOLs",1,139,2023-03-09T04:17:16+00:00,10.749773025513,1,versionA_stim.csv,ReadVersion_Recall.csv,"Read Recall",Read1,HEAVY,FEATHER,Study2,M,68,90,Study,User,-,,Study/JOL,"Study Phase2",10356,,,-1,-1,,,,1
TaravionCosey,78kctuhioc,"Mediated JOLs",1,140,2023-03-09T04:17:24+00:00,8.9253849983215,1,versionA_stim.csv,ReadVersion_Recall.csv,"Read Recall",Read1,WINDOW,KNOB,Study2,M,74,103,Study,User,-,,Study/JOL,"Study Phase2",8541,,,-1,-1,,,,1
TaravionCosey,78kctuhioc,"Mediated JOLs",1,141,2023-03-09T04:17:35+00:00,10.768295049667,1,versionA_stim.csv,ReadVersion_Recall.csv,"Read Recall",Read1,BLAZE,FIRE,Study2,F,81,86,Study,User,-,,Study/JOL,"Study Phase2",10192,,,-1,-1,,,,1
TaravionCosey,78kctuhioc,"Mediated JOLs",1,142,2023-03-09T04:17:57+00:00,21.342262029648,1,versionA_stim.csv,ReadVersion_Recall.csv,"Read Recall",Read1,HAPPY,CAR,Study2,U,92,88,Study,User,-,,Study/JOL,"Study Phase2",20631,,,-1,-1,,,,1
TaravionCosey,78kctuhioc,"Mediated JOLs",1,143,2023-03-09T04:18:14+00:00,17.394216775894,1,versionA_stim.csv,ReadVersion_Recall.csv,"Read Recall",Read1,BENCH,HORN,Study2,U,98,94,Study,User,-,,Study/JOL,"Study Phase2",16818,,,-1,-1,,,,1
TaravionCosey,78kctuhioc,"Mediated JOLs",1,144,2023-03-09T04:18:22+00:00,8.0694651603699,1,versionA_stim.csv,ReadVersion_Recall.csv,"Read Recall",Read1,BOTH,OUNCE,Study2,U,102,83,Study,User,-,,Study/JOL,"Study Phase2",7609,,,-1,-1,,,,1
TaravionCosey,78kctuhioc,"Mediated JOLs",1,145,2023-03-09T04:18:33+00:00,11.407819986343,1,versionA_stim.csv,ReadVersion_Recall.csv,"Read Recall",Read1,DEATH,BUSINESS,Study2,U,99,105,Study,User,-,,Study/JOL,"Study Phase2",11062,,,-1,-1,,,,1
TaravionCosey,78kctuhioc,"Mediated JOLs",1,146,2023-03-09T04:18:42+00:00,8.4272840023041,1,versionA_stim.csv,ReadVersion_Recall.csv,"Read Recall",Read1,PANTS,COLLAR,Study2,M,63,104,Study,User,-,,Study/JOL,"Study Phase2",7794,,,-1,-1,,,,1
TaravionCosey,78kctuhioc,"Mediated JOLs",1,147,2023-03-09T04:19:03+00:00,21.639297962189,1,versionA_stim.csv,ReadVersion_Recall.csv,"Read Recall",Read1,GRILL,THIGH,Study2,M,72,68,Study,User,-,,Study/JOL,"Study Phase2",20705,,,-1,-1,,,,1
TaravionCosey,78kctuhioc,"Mediated JOLs",1,148,2023-03-09T04:19:23+00:00,19.042213916779,1,versionA_stim.csv,ReadVersion_Recall.csv,"Read Recall",Read1,STRONG,ACCIDENT,Study2,U,94,92,Study,User,-,,Study/JOL,"Study Phase2",18543,,,-1,-1,,,,1
TaravionCosey,78kctuhioc,"Mediated JOLs",1,149,2023-03-09T04:19:32+00:00,9.0931720733643,1,versionA_stim.csv,ReadVersion_Recall.csv,"Read Recall",Read1,SCHOOL,STOP,Study2,M,62,72,Study,User,-,,Study/JOL,"Study Phase2",8507,,,-1,-1,,,,1
TaravionCosey,78kctuhioc,"Mediated JOLs",1,150,2023-03-09T04:19:43+00:00,11.228568077087,1,versionA_stim.csv,ReadVersion_Recall.csv,"Read Recall",Read1,SUMMER,SNOW,Study2,M,61,63,Study,User,-,,Study/JOL,"Study Phase2",10751,,,-1,-1,,,,1
TaravionCosey,78kctuhioc,"Mediated JOLs",1,151,2023-03-09T04:19:57+00:00,14.474095821381,1,versionA_stim.csv,ReadVersion_Recall.csv,"Read Recall",Read1,DIETARY,SACK,Study2,U,97,102,Study,User,-,,Study/JOL,"Study Phase2",13988,,,-1,-1,,,,1
TaravionCosey,78kctuhioc,"Mediated JOLs",1,152,2023-03-09T04:20:08+00:00,10.643208026886,1,versionA_stim.csv,ReadVersion_Recall.csv,"Read Recall",Read1,FEUD,FIGHT,Study2,F,86,80,Study,User,-,,Study/JOL,"Study Phase2",10124,,,-1,-1,,,,1
TaravionCosey,78kctuhioc,"Mediated JOLs",1,153,2023-03-09T04:20:21+00:00,12.754265069962,1,versionA_stim.csv,ReadVersion_Recall.csv,"Read Recall",Read1,HORNET,STING,Study2,F,85,106,Study,User,-,,Study/JOL,"Study Phase2",12174,,,-1,-1,,,,1
TaravionCosey,78kctuhioc,"Mediated JOLs",1,154,2023-03-09T04:20:38+00:00,17.576893091202,1,versionA_stim.csv,ReadVersion_Recall.csv,"Read Recall",Read1,MIRROR,CHILDREN,Study2,U,104,101,Study,User,-,,Study/JOL,"Study Phase2",17096,,,-1,-1,,,,1
TaravionCosey,78kctuhioc,"Mediated JOLs",1,155,2023-03-09T04:20:50+00:00,11.606201887131,1,versionA_stim.csv,ReadVersion_Recall.csv,"Read Recall",Read1,SUGAR,RIDDLE,Study2,U,95,64,Study,User,-,,Study/JOL,"Study Phase2",11147,,,-1,-1,,,,1
TaravionCosey,78kctuhioc,"Mediated JOLs",1,156,2023-03-09T04:21:05+00:00,14.69630408287,1,versionA_stim.csv,ReadVersion_Recall.csv,"Read Recall",Read1,ATTIRE,CLOTHES,Study2,F,79,79,Study,User,-,,Study/JOL,"Study Phase2",13938,,,-1,-1,,,,1
TaravionCosey,78kctuhioc,"Mediated JOLs",1,157,2023-03-09T04:21:17+00:00,12.433575868607,1,versionA_stim.csv,ReadVersion_Recall.csv,"Read Recall",Read1,CHILL,COLD,Study2,F,87,100,Study,User,-,,Study/JOL,"Study Phase2",11899,,,-1,-1,,,,1
TaravionCosey,78kctuhioc,"Mediated JOLs",1,158,2023-03-09T04:21:25+00:00,8.2445840835571,1,versionA_stim.csv,ReadVersion_Recall.csv,"Read Recall",Read1,DAYS,WEAKS,BUFFER3,Buffer,56,59,Study,User,-,,Study/JOL,BUFFER2,7841,,,-1,-1,,,,1
TaravionCosey,78kctuhioc,"Mediated JOLs",1,159,2023-03-09T04:21:35+00:00,9.8911049365997,1,versionA_stim.csv,ReadVersion_Recall.csv,"Read Recall",Read1,GEESE,GOOSE,BUFFER2,Buffer,51,54,Study,User,-,,Study/JOL,BUFFER2,9443,,,-1,-1,,,,1
TaravionCosey,78kctuhioc,"Mediated JOLs",1,160,2023-03-09T04:21:43+00:00,7.5488331317902,1,versionA_stim.csv,ReadVersion_Recall.csv,"Read Recall",Read1,MOON,SPACE,BUFFER2,Buffer,54,55,Study,User,-,,Study/JOL,BUFFER2,7128,,,-1,-1,,,,1
TaravionCosey,78kctuhioc,"Mediated JOLs",1,161,2023-03-09T04:21:55+00:00,12.315914869308,1,versionA_stim.csv,ReadVersion_Recall.csv,"Read Recall",Read1,SHERRIF,POLICE,BUFFER2,Buffer,52,56,Study,User,-,,Study/JOL,BUFFER2,11813,,,-1,-1,,,,1
TaravionCosey,78kctuhioc,"Mediated JOLs",1,162,2023-03-09T04:22:04+00:00,9.0365071296692,1,versionA_stim.csv,ReadVersion_Recall.csv,"Read Recall",Read1,SHRIMP,FISH,BUFFER4,Buffer,108,109,Study,User,-,,Study/JOL,BUFFER2,8543,,,-1,-1,,,,1
TaravionCosey,78kctuhioc,"Mediated JOLs",1,163,2023-03-09T04:22:07+00:00,2.9367349147797,1,versionA_stim.csv,ReadVersion_Recall.csv,"Read Recall",Read1,,,,,,0,Instruct,User,-,"You have completed this section. Please press Enter.",Filler_Instruction,Instruct2,2458,,,-1,-1,,,,1
TaravionCosey,78kctuhioc,"Mediated JOLs",1,164,2023-03-09T04:24:08+00:00,121.09968209267,1,versionA_stim.csv,ReadVersion_Recall.csv,"Read Recall",Read1,,,,,,0,FreeRecall,120,120,"Please list the 50 US states in alphabetical order. The task will automatically advance to the next screen after two minutes.",,Filler1,120354,"Alabama Alaska Arizona Arkansas California Colorado Connecticut Delaware Florida Georgia Hawaii Idaho Illinois Indiana Iowa Kansas Kentucky Louisiana Maine Maryland Massachusetts Michigan Minnesota Mississippi Missouri Montana Nebraska Nevada New Hampshire New Jersey New Mexico New York North Carolina North Dakota Ohio Oklahoma Oregon Pennsylvania Rhode Island South Carolina South Dakota Tennessee Texas Utah Vermont Virginia Washington West Virginia Wisconsin Wyoming",0,-1,-1,0,0,,0.926
TaravionCosey,78kctuhioc,"Mediated JOLs",1,165,2023-03-09T04:24:24+00:00,15.532241821289,1,versionA_stim.csv,ReadVersion_Recall.csv,"Read Recall",Read1,,,,,,0,Instruct,-,10,"You will now be presented with the first word from each of the previously studied item pairs. Please type the missing word. If you do not know the word, you may guess or press Enter to skip forward to the next pair.",,Instruct3,14838,,,-1,-1,,,,0.391
TaravionCosey,78kctuhioc,"Mediated JOLs",1,166,2023-03-09T04:25:04+00:00,39.899095058441,1,versionA_stim.csv,ReadVersion_Recall.csv,"Read Recall",Read1,MIRROR,CHILDREN,Study2,U,104,101,Test,User,-,,Recall,Recall2,39516,"Children ",100,-1,-1,1,1,,1
TaravionCosey,78kctuhioc,"Mediated JOLs",1,167,2023-03-09T04:25:15+00:00,11.413545131683,1,versionA_stim.csv,ReadVersion_Recall.csv,"Read Recall",Read1,SOAP,DRINK,Study2,M,67,99,Test,User,-,,Recall,Recall2,10999,Drink,100,-1,-1,1,1,,1
TaravionCosey,78kctuhioc,"Mediated JOLs",1,168,2023-03-09T04:25:30+00:00,14.732625961304,1,versionA_stim.csv,ReadVersion_Recall.csv,"Read Recall",Read1,KING,VASE,Study2,U,91,89,Test,User,-,,Recall,Recall2,14227,Vase,100,-1,-1,1,1,,1
TaravionCosey,78kctuhioc,"Mediated JOLs",1,169,2023-03-09T04:25:37+00:00,7.7229409217834,1,versionA_stim.csv,ReadVersion_Recall.csv,"Read Recall",Read1,BLAZE,FIRE,Study2,F,81,86,Test,User,-,,Recall,Recall2,7243,Fire,100,-1,-1,1,1,,1
TaravionCosey,78kctuhioc,"Mediated JOLs",1,170,2023-03-09T04:25:50+00:00,13.086724042892,1,versionA_stim.csv,ReadVersion_Recall.csv,"Read Recall",Read1,WASP,BUG,Study2,F,89,62,Test,User,-,,Recall,Recall2,12423,Bug,100,-1,-1,1,1,,1
TaravionCosey,78kctuhioc,"Mediated JOLs",1,171,2023-03-09T04:26:24+00:00,33.250996112823,1,versionA_stim.csv,ReadVersion_Recall.csv,"Read Recall",Read1,REALITY,ISLAND,Study2,M,64,91,Test,User,-,,Recall,Recall2,32732,"Island ",100,-1,-1,1,1,,1
TaravionCosey,78kctuhioc,"Mediated JOLs",1,172,2023-03-09T04:26:38+00:00,13.802798986435,1,versionA_stim.csv,ReadVersion_Recall.csv,"Read Recall",Read1,INCENSE,SMELL,Study2,F,83,74,Test,User,-,,Recall,Recall2,13144,Smell,100,-1,-1,1,1,,1
TaravionCosey,78kctuhioc,"Mediated JOLs",1,173,2023-03-09T04:26:55+00:00,17.766855955124,1,versionA_stim.csv,ReadVersion_Recall.csv,"Read Recall",Read1,GRILL,THIGH,Study2,M,72,68,Test,User,-,,Recall,Recall2,17189,Thigh,100,-1,-1,1,1,,1
TaravionCosey,78kctuhioc,"Mediated JOLs",1,174,2023-03-09T04:27:15+00:00,19.326814889908,1,versionA_stim.csv,ReadVersion_Recall.csv,"Read Recall",Read1,STRONG,ACCIDENT,Study2,U,94,92,Test,User,-,,Recall,Recall2,18819,"Accident ",100,-1,-1,1,1,,1
TaravionCosey,78kctuhioc,"Mediated JOLs",1,175,2023-03-09T04:27:34+00:00,19.789661169052,1,versionA_stim.csv,ReadVersion_Recall.csv,"Read Recall",Read1,LEAGUE,BASEBALL,Study2,F,84,82,Test,User,-,,Recall,Recall2,19165,"Baseball ",100,-1,-1,1,1,,1
TaravionCosey,78kctuhioc,"Mediated JOLs",1,176,2023-03-09T04:27:46+00:00,12.041701793671,1,versionA_stim.csv,ReadVersion_Recall.csv,"Read Recall",Read1,BENCH,HORN,Study2,U,98,94,Test,User,-,,Recall,Recall2,11135,Horn,100,-1,-1,1,1,,1
TaravionCosey,78kctuhioc,"Mediated JOLs",1,177,2023-03-09T04:27:59+00:00,12.582149982452,1,versionA_stim.csv,ReadVersion_Recall.csv,"Read Recall",Read1,ATTIRE,CLOTHES,Study2,F,79,79,Test,User,-,,Recall,Recall2,12137,Clothes,100,-1,-1,1,1,,1
TaravionCosey,78kctuhioc,"Mediated JOLs",1,178,2023-03-09T04:28:13+00:00,14.113343000412,1,versionA_stim.csv,ReadVersion_Recall.csv,"Read Recall",Read1,HAPPY,CAR,Study2,U,92,88,Test,User,-,,Recall,Recall2,13188,Sad,33.333333333333,-1,-1,0,0,,1
TaravionCosey,78kctuhioc,"Mediated JOLs",1,179,2023-03-09T04:28:21+00:00,8.0490992069244,1,versionA_stim.csv,ReadVersion_Recall.csv,"Read Recall",Read1,CHERRY,RED,Study2,F,80,76,Test,User,-,,Recall,Recall2,7406,Red,100,-1,-1,1,1,,1
TaravionCosey,78kctuhioc,"Mediated JOLs",1,180,2023-03-09T04:28:29+00:00,7.8846747875214,1,versionA_stim.csv,ReadVersion_Recall.csv,"Read Recall",Read1,CASH,LEG,Study2,U,105,93,Test,User,-,,Recall,Recall2,7536,"Money ",25,-1,-1,0,0,,1
TaravionCosey,78kctuhioc,"Mediated JOLs",1,181,2023-03-09T04:28:43+00:00,13.839257001877,1,versionA_stim.csv,ReadVersion_Recall.csv,"Read Recall",Read1,BRIDGE,WATER,Study2,F,90,66,Test,User,-,,Recall,Recall2,13385,"Water ",100,-1,-1,1,1,,1
TaravionCosey,78kctuhioc,"Mediated JOLs",1,182,2023-03-09T04:29:07+00:00,23.877013206482,1,versionA_stim.csv,ReadVersion_Recall.csv,"Read Recall",Read1,HERD,COW,Study2,F,88,97,Test,User,-,,Recall,Recall2,23162,Cow,100,-1,-1,1,1,,1
TaravionCosey,78kctuhioc,"Mediated JOLs",1,183,2023-03-09T04:29:36+00:00,29.390616893768,1,versionA_stim.csv,ReadVersion_Recall.csv,"Read Recall",Read1,SUGAR,RIDDLE,Study2,U,95,64,Test,User,-,,Recall,Recall2,28946,"Riddle ",100,-1,-1,1,1,,1
TaravionCosey,78kctuhioc,"Mediated JOLs",1,184,2023-03-09T04:30:28+00:00,51.409449100494,1,versionA_stim.csv,ReadVersion_Recall.csv,"Read Recall",Read1,CHOP,CUT,Study2,F,77,81,Test,User,-,,Recall,Recall2,50782,Cut,100,-1,-1,1,1,,1
TaravionCosey,78kctuhioc,"Mediated JOLs",1,185,2023-03-09T04:30:46+00:00,18.569598913193,1,versionA_stim.csv,ReadVersion_Recall.csv,"Read Recall",Read1,RAKE,SEED,Study2,M,69,95,Test,User,-,,Recall,Recall2,18097,"Cake ",25,-1,-1,0,0,,1
TaravionCosey,78kctuhioc,"Mediated JOLs",1,186,2023-03-09T04:31:06+00:00,20.005209922791,1,versionA_stim.csv,ReadVersion_Recall.csv,"Read Recall",Read1,DIETARY,SACK,Study2,U,97,102,Test,User,-,,Recall,Recall2,19428,Sack,100,-1,-1,1,1,,1
TaravionCosey,78kctuhioc,"Mediated JOLs",1,187,2023-03-09T04:31:13+00:00,6.8003861904144,1,versionA_stim.csv,ReadVersion_Recall.csv,"Read Recall",Read1,ART,WOLF,Study2,U,93,70,Test,User,-,,Recall,Recall2,6242,Work,50,-1,-1,0,0,,1
TaravionCosey,78kctuhioc,"Mediated JOLs",1,188,2023-03-09T04:31:40+00:00,27.257535934448,1,versionA_stim.csv,ReadVersion_Recall.csv,"Read Recall",Read1,DOCUMENT,PAPER,Study2,F,82,84,Test,User,-,,Recall,Recall2,26700,"Paper ",100,-1,-1,1,1,,1
TaravionCosey,78kctuhioc,"Mediated JOLs",1,189,2023-03-09T04:31:54+00:00,13.320499897003,1,versionA_stim.csv,ReadVersion_Recall.csv,"Read Recall",Read1,CACTUS,PLANT,Study2,F,76,75,Test,User,-,,Recall,Recall2,12830,Plant,100,-1,-1,1,1,,1
TaravionCosey,78kctuhioc,"Mediated JOLs",1,190,2023-03-09T04:32:03+00:00,8.9410080909729,1,versionA_stim.csv,ReadVersion_Recall.csv,"Read Recall",Read1,WINDOW,KNOB,Study2,M,74,103,Test,User,-,,Recall,Recall2,8492,Knob,100,-1,-1,1,1,,1
TaravionCosey,78kctuhioc,"Mediated JOLs",1,191,2023-03-09T04:32:21+00:00,18.883708000183,1,versionA_stim.csv,ReadVersion_Recall.csv,"Read Recall",Read1,ARTERY,BRONZE,Study2,U,103,65,Test,User,-,,Recall,Recall2,18418,"Bronze ",100,-1,-1,1,1,,1
TaravionCosey,78kctuhioc,"Mediated JOLs",1,192,2023-03-09T04:32:41+00:00,20.056993961334,1,versionA_stim.csv,ReadVersion_Recall.csv,"Read Recall",Read1,HORNET,STING,Study2,F,85,106,Test,User,-,,Recall,Recall2,19515,Sting,100,-1,-1,1,1,,1
TaravionCosey,78kctuhioc,"Mediated JOLs",1,193,2023-03-09T04:33:08+00:00,27.008728027344,1,versionA_stim.csv,ReadVersion_Recall.csv,"Read Recall",Read1,RAZOR,MUSCLE,Study2,M,75,96,Test,User,-,,Recall,Recall2,26544,"Muscle ",100,-1,-1,1,1,,1
TaravionCosey,78kctuhioc,"Mediated JOLs",1,194,2023-03-09T04:33:26+00:00,18.002707004547,1,versionA_stim.csv,ReadVersion_Recall.csv,"Read Recall",Read1,CHISEL,HAMMER,Study2,F,78,71,Test,User,-,,Recall,Recall2,17418,"Hammer ",100,-1,-1,1,1,,1
TaravionCosey,78kctuhioc,"Mediated JOLs",1,195,2023-03-09T04:33:40+00:00,13.73279094696,1,versionA_stim.csv,ReadVersion_Recall.csv,"Read Recall",Read1,SUMMER,SNOW,Study2,M,61,63,Test,User,-,,Recall,Recall2,13344,"Snow ",100,-1,-1,1,1,,1
TaravionCosey,78kctuhioc,"Mediated JOLs",1,196,2023-03-09T04:33:57+00:00,17.040504932404,1,versionA_stim.csv,ReadVersion_Recall.csv,"Read Recall",Read1,OVEN,BASKET,Study2,M,71,78,Test,User,-,,Recall,Recall2,16496,Basket,100,-1,-1,1,1,,1
TaravionCosey,78kctuhioc,"Mediated JOLs",1,197,2023-03-09T04:34:17+00:00,19.791870117188,1,versionA_stim.csv,ReadVersion_Recall.csv,"Read Recall",Read1,BOTH,OUNCE,Study2,U,102,83,Test,User,-,,Recall,Recall2,19320,"Ounce ",100,-1,-1,1,1,,1
TaravionCosey,78kctuhioc,"Mediated JOLs",1,198,2023-03-09T04:34:34+00:00,16.896027088165,1,versionA_stim.csv,ReadVersion_Recall.csv,"Read Recall",Read1,HEAVY,FEATHER,Study2,M,68,90,Test,User,-,,Recall,Recall2,16244,"Feather ",100,-1,-1,1,1,,1
TaravionCosey,78kctuhioc,"Mediated JOLs",1,199,2023-03-09T04:34:43+00:00,9.1234917640686,1,versionA_stim.csv,ReadVersion_Recall.csv,"Read Recall",Read1,LEASE,TOIL,Study2,U,101,73,Test,User,-,,Recall,Recall2,7641,Rent,25,-1,-1,0,0,,1
TaravionCosey,78kctuhioc,"Mediated JOLs",1,200,2023-03-09T04:34:58+00:00,14.740279197693,1,versionA_stim.csv,ReadVersion_Recall.csv,"Read Recall",Read1,SICK,HIDE,Study2,U,100,98,Test,User,-,,Recall,Recall2,13910,Hide,100,-1,-1,1,1,,1
TaravionCosey,78kctuhioc,"Mediated JOLs",1,201,2023-03-09T04:35:13+00:00,14.772929906845,1,versionA_stim.csv,ReadVersion_Recall.csv,"Read Recall",Read1,FEUD,FIGHT,Study2,F,86,80,Test,User,-,,Recall,Recall2,13850,Fight,100,-1,-1,1,1,,1
TaravionCosey,78kctuhioc,"Mediated JOLs",1,202,2023-03-09T04:35:30+00:00,16.962635040283,1,versionA_stim.csv,ReadVersion_Recall.csv,"Read Recall",Read1,PUSH,CLUTTER,Study2,U,96,69,Test,User,-,,Recall,Recall2,16002,"Clutter ",100,-1,-1,1,1,,1
TaravionCosey,78kctuhioc,"Mediated JOLs",1,203,2023-03-09T04:35:41+00:00,11.078088998795,1,versionA_stim.csv,ReadVersion_Recall.csv,"Read Recall",Read1,VALLEY,PEAK,Study2,M,73,67,Test,User,-,,Recall,Recall2,10715,Peak,100,-1,-1,1,1,,1
TaravionCosey,78kctuhioc,"Mediated JOLs",1,204,2023-03-09T04:35:49+00:00,8.2508230209351,1,versionA_stim.csv,ReadVersion_Recall.csv,"Read Recall",Read1,CHILL,COLD,Study2,F,87,100,Test,User,-,,Recall,Recall2,7724,Cold,100,-1,-1,1,1,,1
TaravionCosey,78kctuhioc,"Mediated JOLs",1,205,2023-03-09T04:35:55+00:00,5.6987669467926,1,versionA_stim.csv,ReadVersion_Recall.csv,"Read Recall",Read1,NURSE,LAWYER,Study2,M,66,77,Test,User,-,,Recall,Recall2,5013,"Lawyer ",100,-1,-1,1,1,,1
TaravionCosey,78kctuhioc,"Mediated JOLs",1,206,2023-03-09T04:36:14+00:00,19.16031908989,1,versionA_stim.csv,ReadVersion_Recall.csv,"Read Recall",Read1,SCHOOL,STOP,Study2,M,62,72,Test,User,-,,Recall,Recall2,18355,Stop,100,-1,-1,1,1,,1
TaravionCosey,78kctuhioc,"Mediated JOLs",1,207,2023-03-09T04:36:41+00:00,27.248075008392,1,versionA_stim.csv,ReadVersion_Recall.csv,"Read Recall",Read1,PANTS,COLLAR,Study2,M,63,104,Test,User,-,,Recall,Recall2,26886,Shirt,18.181818181818,-1,-1,0,0,,1
TaravionCosey,78kctuhioc,"Mediated JOLs",1,208,2023-03-09T04:36:49+00:00,8.3663568496704,1,versionA_stim.csv,ReadVersion_Recall.csv,"Read Recall",Read1,EYES,SMELL,Study2,M,65,87,Test,User,-,,Recall,Recall2,7699,Smell,100,-1,-1,1,1,,1
TaravionCosey,78kctuhioc,"Mediated JOLs",1,209,2023-03-09T04:36:57+00:00,7.2788109779358,1,versionA_stim.csv,ReadVersion_Recall.csv,"Read Recall",Read1,DEATH,BUSINESS,Study2,U,99,105,Test,User,-,,Recall,Recall2,6850,"Business ",100,-1,-1,1,1,,1
TaravionCosey,78kctuhioc,"Mediated JOLs",1,210,2023-03-09T04:37:14+00:00,17.578288078308,1,versionA_stim.csv,ReadVersion_Recall.csv,"Read Recall",Read1,TRAP,CAVE,Study2,M,70,85,Test,User,-,,Recall,Recall2,16471,"Cave ",100,-1,-1,1,1,,1
TaravionCosey,78kctuhioc,"Mediated JOLs",1,211,2023-03-09T04:37:18+00:00,3.7800710201263,1,versionA_stim.csv,ReadVersion_Recall.csv,"Read Recall",Read1,,,,,,0,Instruct,User,-,"You have completed this section. Please press Enter.",,Instruct7,3159,,,-1,-1,,,,1
TaravionCosey,78kctuhioc,"Mediated JOLs",1,212,2023-03-09T04:37:25+00:00,7.0797638893127,1,versionA_stim.csv,ReadVersion_Recall.csv,"Read Recall",Read1,,,,,,0,Instruct,User,-,"The following screen will ask you a few questions abour your experience today. You must complete these questions to receive credit.",,Instruct8,6524,,,-1,-1,,,,1
