Username,ID,ExperimentName,Session,Trial,Date,TimeDif,"Condition Number","Stimuli File","Order File","Condition Description","Condition Notes",Stimuli*Cue,Stimuli*Answer,Stimuli*Shuffle,"Stimuli*Stimuli Notes",Stimuli*Value,Procedure*Item,"Procedure*Trial Type","Procedure*Max Time","Procedure*Min Time",Procedure*Text,"Procedure*Procedure Notes",Procedure*Shuffle,Response*RT,Response*Response,Response*Accuracy,Response*RTfirst,Response*RTlast,Response*strictAcc,Response*lenientAcc,Response*focus,Response*Focus
w10133134_lpc,smuv47njqq,"Mediated JOLs",1,1,2023-02-10T21:02:30+00:00,5.8644528388977,1,versionA_stim.csv,ReadVersion.csv,Read,Read1,,,,,,0,Instruct,-,5,"In this section, you will be presented with a series of word pairs. Please study each word pair! Your memory will be tested!",Initial_Instruct,Instruct1,5692,,,-1,-1,,,,1
w10133134_lpc,smuv47njqq,"Mediated JOLs",1,2,2023-02-10T21:02:33+00:00,3.0871751308441,1,versionA_stim.csv,ReadVersion.csv,Read,Read1,,,,,,0,Instruct,User,-,"You will now begin. Press Enter when you are ready to begin.",,Instruct16,2858,,,-1,-1,,,,1
w10133134_lpc,smuv47njqq,"Mediated JOLs",1,3,2023-02-10T21:02:36+00:00,2.7979278564453,1,versionA_stim.csv,ReadVersion.csv,Read,Read1,SPACE,JAM,BUFFER1,Buffer,5,3,Study,User,-,,Study/JOL,BUFFER,2564,,,-1,-1,,,,1
w10133134_lpc,smuv47njqq,"Mediated JOLs",1,4,2023-02-10T21:02:37+00:00,1.3397150039673,1,versionA_stim.csv,ReadVersion.csv,Read,Read1,PITCHER,CATCHER,BUFFER1,Buffer,2,6,Study,User,-,,Study/JOL,BUFFER,1115,,,-1,-1,,,,1
w10133134_lpc,smuv47njqq,"Mediated JOLs",1,5,2023-02-10T21:02:39+00:00,2.2938930988312,1,versionA_stim.csv,ReadVersion.csv,Read,Read1,TREES,GREEN,BUFFER1,Buffer,1,2,Study,User,-,,Study/JOL,BUFFER,2073,,,-1,-1,,,,1
w10133134_lpc,smuv47njqq,"Mediated JOLs",1,6,2023-02-10T21:02:41+00:00,1.5148179531097,1,versionA_stim.csv,ReadVersion.csv,Read,Read1,SCARE,FRIGHT,BUFFER1,Buffer,4,5,Study,User,-,,Study/JOL,BUFFER,1289,,,-1,-1,,,,1
w10133134_lpc,smuv47njqq,"Mediated JOLs",1,7,2023-02-10T21:02:42+00:00,1.209349155426,1,versionA_stim.csv,ReadVersion.csv,Read,Read1,PEANUT,BUTTER,BUFFER1,Buffer,3,4,Study,User,-,,Study/JOL,BUFFER,984,,,-1,-1,,,,1
w10133134_lpc,smuv47njqq,"Mediated JOLs",1,8,2023-02-10T21:02:45+00:00,2.7990097999573,1,versionA_stim.csv,ReadVersion.csv,Read,Read1,GIVE,STEAK,Study1,U,38,26,Study,User,-,,Study/JOL,"Study Phase",2569,,,-1,-1,,,,1
w10133134_lpc,smuv47njqq,"Mediated JOLs",1,9,2023-02-10T21:02:46+00:00,1.5232381820679,1,versionA_stim.csv,ReadVersion.csv,Read,Read1,TEMPERATURE,MORNING,Study1,U,48,42,Study,User,-,,Study/JOL,"Study Phase",1300,,,-1,-1,,,,1
w10133134_lpc,smuv47njqq,"Mediated JOLs",1,10,2023-02-10T21:02:48+00:00,1.6646459102631,1,versionA_stim.csv,ReadVersion.csv,Read,Read1,SOON,BELT,Study1,U,46,16,Study,User,-,,Study/JOL,"Study Phase",1437,,,-1,-1,,,,1
w10133134_lpc,smuv47njqq,"Mediated JOLs",1,11,2023-02-10T21:02:50+00:00,1.8383429050446,1,versionA_stim.csv,ReadVersion.csv,Read,Read1,BIRTHDAY,PIE,Study1,M,9,29,Study,User,-,,Study/JOL,"Study Phase",1614,,,-1,-1,,,,1
w10133134_lpc,smuv47njqq,"Mediated JOLs",1,12,2023-02-10T21:02:52+00:00,1.891813993454,1,versionA_stim.csv,ReadVersion.csv,Read,Read1,WAGE,MONEY,Study1,F,22,9,Study,User,-,,Study/JOL,"Study Phase",1666,,,-1,-1,,,,1
w10133134_lpc,smuv47njqq,"Mediated JOLs",1,13,2023-02-10T21:02:54+00:00,2.0318109989166,1,versionA_stim.csv,ReadVersion.csv,Read,Read1,HORSE,WHEEL,Study1,M,14,11,Study,User,-,,Study/JOL,"Study Phase",1815,,,-1,-1,,,,1
w10133134_lpc,smuv47njqq,"Mediated JOLs",1,14,2023-02-10T21:02:56+00:00,2.1518411636353,1,versionA_stim.csv,ReadVersion.csv,Read,Read1,TOOTH,HAIR,Study1,M,19,47,Study,User,-,,Study/JOL,"Study Phase",1931,,,-1,-1,,,,1
w10133134_lpc,smuv47njqq,"Mediated JOLs",1,15,2023-02-10T21:02:58+00:00,1.9559178352356,1,versionA_stim.csv,ReadVersion.csv,Read,Read1,HARD,COTTON,Study1,M,20,45,Study,User,-,,Study/JOL,"Study Phase",1734,,,-1,-1,,,,1
w10133134_lpc,smuv47njqq,"Mediated JOLs",1,16,2023-02-10T21:03:00+00:00,1.8034520149231,1,versionA_stim.csv,ReadVersion.csv,Read,Read1,LION,STRIPES,Study1,M,6,34,Study,User,-,,Study/JOL,"Study Phase",1580,,,-1,-1,,,,1
w10133134_lpc,smuv47njqq,"Mediated JOLs",1,17,2023-02-10T21:03:01+00:00,1.7467801570892,1,versionA_stim.csv,ReadVersion.csv,Read,Read1,ROUGH,SILK,Study1,M,10,27,Study,User,-,,Study/JOL,"Study Phase",1524,,,-1,-1,,,,1
w10133134_lpc,smuv47njqq,"Mediated JOLs",1,18,2023-02-10T21:03:03+00:00,1.9048180580139,1,versionA_stim.csv,ReadVersion.csv,Read,Read1,CIRCLE,DANCE,Study1,M,13,13,Study,User,-,,Study/JOL,"Study Phase",1682,,,-1,-1,,,,1
w10133134_lpc,smuv47njqq,"Mediated JOLs",1,19,2023-02-10T21:03:05+00:00,2.003280878067,1,versionA_stim.csv,ReadVersion.csv,Read,Read1,SIGN,TICK,Study1,U,47,36,Study,User,-,,Study/JOL,"Study Phase",1783,,,-1,-1,,,,1
w10133134_lpc,smuv47njqq,"Mediated JOLs",1,20,2023-02-10T21:03:07+00:00,1.4873900413513,1,versionA_stim.csv,ReadVersion.csv,Read,Read1,HYGIENE,CLEAN,Study1,F,28,19,Study,User,-,,Study/JOL,"Study Phase",1266,,,-1,-1,,,,1
w10133134_lpc,smuv47njqq,"Mediated JOLs",1,21,2023-02-10T21:03:09+00:00,2.7562749385834,1,versionA_stim.csv,ReadVersion.csv,Read,Read1,MEAT,KEYS,Study1,U,41,44,Study,User,-,,Study/JOL,"Study Phase",2541,,,-1,-1,,,,1
w10133134_lpc,smuv47njqq,"Mediated JOLs",1,22,2023-02-10T21:03:11+00:00,1.9468851089478,1,versionA_stim.csv,ReadVersion.csv,Read,Read1,MAZE,PHONE,Study1,U,42,46,Study,User,-,,Study/JOL,"Study Phase",1720,,,-1,-1,,,,1
w10133134_lpc,smuv47njqq,"Mediated JOLs",1,23,2023-02-10T21:03:14+00:00,2.1242558956146,1,versionA_stim.csv,ReadVersion.csv,Read,Read1,SHELL,SHAKE,Study1,U,43,32,Study,User,-,,Study/JOL,"Study Phase",1900,,,-1,-1,,,,1
w10133134_lpc,smuv47njqq,"Mediated JOLs",1,24,2023-02-10T21:03:16+00:00,2.0116031169891,1,versionA_stim.csv,ReadVersion.csv,Read,Read1,BEACH,BOX,Study1,M,7,7,Study,User,-,,Study/JOL,"Study Phase",1779,,,-1,-1,,,,1
w10133134_lpc,smuv47njqq,"Mediated JOLs",1,25,2023-02-10T21:03:17+00:00,1.7290148735046,1,versionA_stim.csv,ReadVersion.csv,Read,Read1,WAR,QUIET,Study1,M,8,51,Study,User,-,,Study/JOL,"Study Phase",1504,,,-1,-1,,,,1
w10133134_lpc,smuv47njqq,"Mediated JOLs",1,26,2023-02-10T21:03:19+00:00,1.7420179843903,1,versionA_stim.csv,ReadVersion.csv,Read,Read1,KEYS,ROD,Study1,U,45,14,Study,User,-,,Study/JOL,"Study Phase",1512,,,-1,-1,,,,1
w10133134_lpc,smuv47njqq,"Mediated JOLs",1,27,2023-02-10T21:03:21+00:00,2.1113481521606,1,versionA_stim.csv,ReadVersion.csv,Read,Read1,CAKE,HAND,Study1,U,49,33,Study,User,-,,Study/JOL,"Study Phase",1895,,,-1,-1,,,,1
w10133134_lpc,smuv47njqq,"Mediated JOLs",1,28,2023-02-10T21:03:24+00:00,3.0942928791046,1,versionA_stim.csv,ReadVersion.csv,Read,Read1,SCALP,HEAD,Study1,F,23,10,Study,User,-,,Study/JOL,"Study Phase",2875,,,-1,-1,,,,1
w10133134_lpc,smuv47njqq,"Mediated JOLs",1,29,2023-02-10T21:03:26+00:00,1.4669959545135,1,versionA_stim.csv,ReadVersion.csv,Read,Read1,CRY,BOTTLE,Study1,M,16,23,Study,User,-,,Study/JOL,"Study Phase",1242,,,-1,-1,,,,1
w10133134_lpc,smuv47njqq,"Mediated JOLs",1,30,2023-02-10T21:03:27+00:00,1.6251611709595,1,versionA_stim.csv,ReadVersion.csv,Read,Read1,WORD,SENTENCE,Study1,F,27,20,Study,User,-,,Study/JOL,"Study Phase",1393,,,-1,-1,,,,1
w10133134_lpc,smuv47njqq,"Mediated JOLs",1,31,2023-02-10T21:03:29+00:00,1.4015169143677,1,versionA_stim.csv,ReadVersion.csv,Read,Read1,ORCHID,FLOWER,Study1,F,34,49,Study,User,-,,Study/JOL,"Study Phase",1160,,,-1,-1,,,,1
w10133134_lpc,smuv47njqq,"Mediated JOLs",1,32,2023-02-10T21:03:30+00:00,1.5729529857635,1,versionA_stim.csv,ReadVersion.csv,Read,Read1,BAT,BOUNCE,Study1,M,12,25,Study,User,-,,Study/JOL,"Study Phase",1350,,,-1,-1,,,,1
w10133134_lpc,smuv47njqq,"Mediated JOLs",1,33,2023-02-10T21:03:32+00:00,1.5628418922424,1,versionA_stim.csv,ReadVersion.csv,Read,Read1,SIP,DRINK,Study1,F,32,41,Study,User,-,,Study/JOL,"Study Phase",1338,,,-1,-1,,,,1
w10133134_lpc,smuv47njqq,"Mediated JOLs",1,34,2023-02-10T21:03:33+00:00,1.4034230709076,1,versionA_stim.csv,ReadVersion.csv,Read,Read1,AFFECTION,LOVE,Study1,F,31,50,Study,User,-,,Study/JOL,"Study Phase",1192,,,-1,-1,,,,1
w10133134_lpc,smuv47njqq,"Mediated JOLs",1,35,2023-02-10T21:03:35+00:00,1.619754076004,1,versionA_stim.csv,ReadVersion.csv,Read,Read1,FUZZY,BANG,Study1,U,50,15,Study,User,-,,Study/JOL,"Study Phase",1389,,,-1,-1,,,,1
w10133134_lpc,smuv47njqq,"Mediated JOLs",1,36,2023-02-10T21:03:36+00:00,1.3304460048676,1,versionA_stim.csv,ReadVersion.csv,Read,Read1,TUNA,FISH,Study1,F,35,21,Study,User,-,,Study/JOL,"Study Phase",1110,,,-1,-1,,,,1
w10133134_lpc,smuv47njqq,"Mediated JOLs",1,37,2023-02-10T21:03:37+00:00,1.2252960205078,1,versionA_stim.csv,ReadVersion.csv,Read,Read1,CREDIT,CARD,Study1,F,33,17,Study,User,-,,Study/JOL,"Study Phase",997,,,-1,-1,,,,1
w10133134_lpc,smuv47njqq,"Mediated JOLs",1,38,2023-02-10T21:03:39+00:00,1.9801638126373,1,versionA_stim.csv,ReadVersion.csv,Read,Read1,ROOT,PLANT,Study1,F,25,30,Study,User,-,,Study/JOL,"Study Phase",1736,,,-1,-1,,,,1
w10133134_lpc,smuv47njqq,"Mediated JOLs",1,39,2023-02-10T21:03:41+00:00,1.2245371341705,1,versionA_stim.csv,ReadVersion.csv,Read,Read1,TREE,SYRUP,Study1,M,11,12,Study,User,-,,Study/JOL,"Study Phase",1009,,,-1,-1,,,,1
w10133134_lpc,smuv47njqq,"Mediated JOLs",1,40,2023-02-10T21:03:42+00:00,1.2470118999481,1,versionA_stim.csv,ReadVersion.csv,Read,Read1,CEILING,CARPET,Study1,M,15,31,Study,User,-,,Study/JOL,"Study Phase",1013,,,-1,-1,,,,1
w10133134_lpc,smuv47njqq,"Mediated JOLs",1,41,2023-02-10T21:03:43+00:00,1.3731250762939,1,versionA_stim.csv,ReadVersion.csv,Read,Read1,MULE,DONKEY,Study1,F,24,38,Study,User,-,,Study/JOL,"Study Phase",1112,,,-1,-1,,,,1
w10133134_lpc,smuv47njqq,"Mediated JOLs",1,42,2023-02-10T21:03:45+00:00,1.9043319225311,1,versionA_stim.csv,ReadVersion.csv,Read,Read1,MULE,DONKEY,Study1,F,30,8,Study,User,-,,Study/JOL,"Study Phase",1662,,,-1,-1,,,,1
w10133134_lpc,smuv47njqq,"Mediated JOLs",1,43,2023-02-10T21:03:47+00:00,1.4793879985809,1,versionA_stim.csv,ReadVersion.csv,Read,Read1,STRETCH,CLOTH,Study1,U,37,39,Study,User,-,,Study/JOL,"Study Phase",1248,,,-1,-1,,,,1
w10133134_lpc,smuv47njqq,"Mediated JOLs",1,44,2023-02-10T21:03:48+00:00,1.2356569766998,1,versionA_stim.csv,ReadVersion.csv,Read,Read1,VEHICLE,CHARM,Study1,U,40,48,Study,User,-,,Study/JOL,"Study Phase",1013,,,-1,-1,,,,1
w10133134_lpc,smuv47njqq,"Mediated JOLs",1,45,2023-02-10T21:03:49+00:00,1.2628211975098,1,versionA_stim.csv,ReadVersion.csv,Read,Read1,NAP,SLEEP,Study1,F,29,24,Study,User,-,,Study/JOL,"Study Phase",1036,,,-1,-1,,,,1
w10133134_lpc,smuv47njqq,"Mediated JOLs",1,46,2023-02-10T21:03:51+00:00,1.7352519035339,1,versionA_stim.csv,ReadVersion.csv,Read,Read1,DAY,DARK,Study1,M,18,18,Study,User,-,,Study/JOL,"Study Phase",1503,,,-1,-1,,,,1
w10133134_lpc,smuv47njqq,"Mediated JOLs",1,47,2023-02-10T21:03:53+00:00,2.4749801158905,1,versionA_stim.csv,ReadVersion.csv,Read,Read1,CRACKLE,ELECTION,Study1,U,39,28,Study,User,-,,Study/JOL,"Study Phase",2249,,,-1,-1,,,,1
w10133134_lpc,smuv47njqq,"Mediated JOLs",1,48,2023-02-10T21:03:55+00:00,1.3037989139557,1,versionA_stim.csv,ReadVersion.csv,Read,Read1,LISTEN,FICTION,Study1,U,44,22,Study,User,-,,Study/JOL,"Study Phase",1084,,,-1,-1,,,,1
w10133134_lpc,smuv47njqq,"Mediated JOLs",1,49,2023-02-10T21:03:56+00:00,1.1171550750732,1,versionA_stim.csv,ReadVersion.csv,Read,Read1,WEDDING,FINGER,Study1,M,17,43,Study,User,-,,Study/JOL,"Study Phase",844,,,-1,-1,,,,1
w10133134_lpc,smuv47njqq,"Mediated JOLs",1,50,2023-02-10T21:03:57+00:00,1.2076418399811,1,versionA_stim.csv,ReadVersion.csv,Read,Read1,SWAN,BIRD,Study1,F,26,37,Study,User,-,,Study/JOL,"Study Phase",983,,,-1,-1,,,,1
w10133134_lpc,smuv47njqq,"Mediated JOLs",1,51,2023-02-10T21:03:58+00:00,1.1946771144867,1,versionA_stim.csv,ReadVersion.csv,Read,Read1,MIRROR,MAROON,Study1,U,36,40,Study,User,-,,Study/JOL,"Study Phase",959,,,-1,-1,,,,1
w10133134_lpc,smuv47njqq,"Mediated JOLs",1,52,2023-02-10T21:04:00+00:00,1.3590879440308,1,versionA_stim.csv,ReadVersion.csv,Read,Read1,LITTER,TRASH,Study1,F,21,35,Study,User,-,,Study/JOL,"Study Phase",1141,,,-1,-1,,,,1
w10133134_lpc,smuv47njqq,"Mediated JOLs",1,53,2023-02-10T21:04:01+00:00,1.0048670768738,1,versionA_stim.csv,ReadVersion.csv,Read,Read1,TOOL,SHED,BUFFER3,Buffer,58,59,Study,User,-,,Study/JOL,BUFFER2,782,,,-1,-1,,,,1
w10133134_lpc,smuv47njqq,"Mediated JOLs",1,54,2023-02-10T21:04:02+00:00,1.0209319591522,1,versionA_stim.csv,ReadVersion.csv,Read,Read1,CARROT,POTATO,BUFFER4,Buffer,106,111,Study,User,-,,Study/JOL,BUFFER2,804,,,-1,-1,,,,1
w10133134_lpc,smuv47njqq,"Mediated JOLs",1,55,2023-02-10T21:04:03+00:00,1.1188690662384,1,versionA_stim.csv,ReadVersion.csv,Read,Read1,MONTH,YEAR,BUFFER3,Buffer,57,57,Study,User,-,,Study/JOL,BUFFER2,887,,,-1,-1,,,,1
w10133134_lpc,smuv47njqq,"Mediated JOLs",1,56,2023-02-10T21:04:04+00:00,1.1000969409943,1,versionA_stim.csv,ReadVersion.csv,Read,Read1,OCTOBER,SPOOKY,BUFFER3,Buffer,60,58,Study,User,-,,Study/JOL,BUFFER2,871,,,-1,-1,,,,1
w10133134_lpc,smuv47njqq,"Mediated JOLs",1,57,2023-02-10T21:04:05+00:00,1.1669030189514,1,versionA_stim.csv,ReadVersion.csv,Read,Read1,SHRIMP,FISH,BUFFER4,Buffer,108,109,Study,User,-,,Study/JOL,BUFFER2,934,,,-1,-1,,,,1
w10133134_lpc,smuv47njqq,"Mediated JOLs",1,58,2023-02-10T21:04:07+00:00,2.2405989170074,1,versionA_stim.csv,ReadVersion.csv,Read,Read1,,,,,,0,Instruct,User,-,"You have completed this section. Please press Enter.",Filler_Instruction,Instruct2,1992,,,-1,-1,,,,1
w10133134_lpc,smuv47njqq,"Mediated JOLs",1,59,2023-02-10T21:06:08+00:00,120.83790802956,1,versionA_stim.csv,ReadVersion.csv,Read,Read1,,,,,,0,FreeRecall,120,120,"Please list the 50 US states in alphabetical order. The task will automatically advance to the next screen after two minutes.",,Filler1,120019,"alabama alaska arizona arkansa california colorado conniecuit delware georia hawaii idaho illinois indiana iowa kansa kentucky louisana maine maryland massecutes michang minnesota missi",0,8028,119926,0,0,,1
w10133134_lpc,smuv47njqq,"Mediated JOLs",1,60,2023-02-10T21:06:20+00:00,11.528475046158,1,versionA_stim.csv,ReadVersion.csv,Read,Read1,,,,,,0,Instruct,-,10,"You will now be presented with the first word from each of the previously studied item pairs. Please type the missing word. If you do not know the word, you may guess or press Enter to skip forward to the next pair.",,Instruct3,11181,,,-1,-1,,,,1
w10133134_lpc,smuv47njqq,"Mediated JOLs",1,61,2023-02-10T21:06:23+00:00,3.6372199058533,1,versionA_stim.csv,ReadVersion.csv,Read,Read1,LION,STRIPES,Study1,M,6,34,Test,User,-,,Recall,Recall1,3407,stripes,100,1437,3101,1,1,,1
w10133134_lpc,smuv47njqq,"Mediated JOLs",1,62,2023-02-10T21:06:32+00:00,9.1588921546936,1,versionA_stim.csv,ReadVersion.csv,Read,Read1,TOOTH,HAIR,Study1,M,19,47,Test,User,-,,Recall,Recall1,8919,hand,50,5315,7631,0,0,,1
w10133134_lpc,smuv47njqq,"Mediated JOLs",1,63,2023-02-10T21:06:36+00:00,4.0789239406586,1,versionA_stim.csv,ReadVersion.csv,Read,Read1,HYGIENE,CLEAN,Study1,F,28,19,Test,User,-,,Recall,Recall1,3840,clean,100,1589,2495,1,1,,1
w10133134_lpc,smuv47njqq,"Mediated JOLs",1,64,2023-02-10T21:06:41+00:00,4.5095729827881,1,versionA_stim.csv,ReadVersion.csv,Read,Read1,SOON,BELT,Study1,U,46,16,Test,User,-,,Recall,Recall1,4277,later,44.444444444444,2139,2946,0,0,,1
w10133134_lpc,smuv47njqq,"Mediated JOLs",1,65,2023-02-10T21:06:45+00:00,4.2465159893036,1,versionA_stim.csv,ReadVersion.csv,Read,Read1,ROUGH,SILK,Study1,M,10,27,Test,User,-,,Recall,Recall1,4009,silk,100,1594,2228,1,1,,1
w10133134_lpc,smuv47njqq,"Mediated JOLs",1,66,2023-02-10T21:06:49+00:00,3.8397929668427,1,versionA_stim.csv,ReadVersion.csv,Read,Read1,TEMPERATURE,MORNING,Study1,U,48,42,Test,User,-,,Recall,Recall1,3600,morning,100,1094,2503,1,1,,1
w10133134_lpc,smuv47njqq,"Mediated JOLs",1,67,2023-02-10T21:06:53+00:00,3.7475969791412,1,versionA_stim.csv,ReadVersion.csv,Read,Read1,ORCHID,FLOWER,Study1,F,34,49,Test,User,-,,Recall,Recall1,3510,flower,100,1257,2315,1,1,,1
w10133134_lpc,smuv47njqq,"Mediated JOLs",1,68,2023-02-10T21:07:01+00:00,8.6233439445496,1,versionA_stim.csv,ReadVersion.csv,Read,Read1,CEILING,CARPET,Study1,M,15,31,Test,User,-,,Recall,Recall1,8396,sky,0,3377,7329,0,0,,1
w10133134_lpc,smuv47njqq,"Mediated JOLs",1,69,2023-02-10T21:07:06+00:00,4.8021950721741,1,versionA_stim.csv,ReadVersion.csv,Read,Read1,MIRROR,MAROON,Study1,U,36,40,Test,User,-,,Recall,Recall1,4569,maroon,100,1590,3424,1,1,,1
w10133134_lpc,smuv47njqq,"Mediated JOLs",1,70,2023-02-10T21:07:09+00:00,3.1911759376526,1,versionA_stim.csv,ReadVersion.csv,Read,Read1,TREE,SYRUP,Study1,M,11,12,Test,User,-,,Recall,Recall1,2959,green,20,1115,1886,0,0,,1
w10133134_lpc,smuv47njqq,"Mediated JOLs",1,71,2023-02-10T21:07:13+00:00,3.1912679672241,1,versionA_stim.csv,ReadVersion.csv,Read,Read1,AFFECTION,LOVE,Study1,F,31,50,Test,User,-,,Recall,Recall1,2951,love,100,1190,1747,1,1,,1
w10133134_lpc,smuv47njqq,"Mediated JOLs",1,72,2023-02-10T21:07:16+00:00,3.3781800270081,1,versionA_stim.csv,ReadVersion.csv,Read,Read1,LITTER,TRASH,Study1,F,21,35,Test,User,-,,Recall,Recall1,3150,trash,100,1273,2017,1,1,,1
w10133134_lpc,smuv47njqq,"Mediated JOLs",1,73,2023-02-10T21:07:26+00:00,9.5451049804688,1,versionA_stim.csv,ReadVersion.csv,Read,Read1,SIGN,TICK,Study1,U,47,36,Test,User,-,,Recall,Recall1,9320,thin,50,5399,7544,0,0,,1
w10133134_lpc,smuv47njqq,"Mediated JOLs",1,74,2023-02-10T21:07:29+00:00,3.4583601951599,1,versionA_stim.csv,ReadVersion.csv,Read,Read1,WAGE,MONEY,Study1,F,22,9,Test,User,-,,Recall,Recall1,3211,money,100,1258,1992,1,1,,1
w10133134_lpc,smuv47njqq,"Mediated JOLs",1,75,2023-02-10T21:07:32+00:00,3.4884879589081,1,versionA_stim.csv,ReadVersion.csv,Read,Read1,MULE,DONKEY,Study1,F,30,8,Test,User,-,,Recall,Recall1,3254,donkey,100,1164,2165,1,1,,1
w10133134_lpc,smuv47njqq,"Mediated JOLs",1,76,2023-02-10T21:07:36+00:00,3.8830950260162,1,versionA_stim.csv,ReadVersion.csv,Read,Read1,SCALP,HEAD,Study1,F,23,10,Test,User,-,,Recall,Recall1,3655,hand,75,1840,2431,0,1,,1
w10133134_lpc,smuv47njqq,"Mediated JOLs",1,77,2023-02-10T21:07:40+00:00,3.9920530319214,1,versionA_stim.csv,ReadVersion.csv,Read,Read1,STRETCH,CLOTH,Study1,U,37,39,Test,User,-,,Recall,Recall1,3757,arm,0,2079,2532,0,0,,1
w10133134_lpc,smuv47njqq,"Mediated JOLs",1,78,2023-02-10T21:07:43+00:00,2.8411839008331,1,versionA_stim.csv,ReadVersion.csv,Read,Read1,VEHICLE,CHARM,Study1,U,40,48,Test,User,-,,Recall,Recall1,2619,car,75,1223,1469,0,1,,1
w10133134_lpc,smuv47njqq,"Mediated JOLs",1,79,2023-02-10T21:07:47+00:00,3.5175850391388,1,versionA_stim.csv,ReadVersion.csv,Read,Read1,MULE,DONKEY,Study1,F,24,38,Test,User,-,,Recall,Recall1,3303,donkey,100,1304,2182,1,1,,1
w10133134_lpc,smuv47njqq,"Mediated JOLs",1,80,2023-02-10T21:07:50+00:00,3.5037689208984,1,versionA_stim.csv,ReadVersion.csv,Read,Read1,MAZE,PHONE,Study1,U,42,46,Test,User,-,,Recall,Recall1,3277,phone,100,1056,2002,1,1,,1
w10133134_lpc,smuv47njqq,"Mediated JOLs",1,81,2023-02-10T21:07:54+00:00,3.8314180374146,1,versionA_stim.csv,ReadVersion.csv,Read,Read1,CREDIT,CARD,Study1,F,33,17,Test,User,-,,Recall,Recall1,3592,card,100,2031,2459,1,1,,1
w10133134_lpc,smuv47njqq,"Mediated JOLs",1,82,2023-02-10T21:07:57+00:00,3.3766210079193,1,versionA_stim.csv,ReadVersion.csv,Read,Read1,BIRTHDAY,PIE,Study1,M,9,29,Test,User,-,,Recall,Recall1,3149,pie,100,1507,1866,1,1,,1
w10133134_lpc,smuv47njqq,"Mediated JOLs",1,83,2023-02-10T21:08:02+00:00,4.6315360069275,1,versionA_stim.csv,ReadVersion.csv,Read,Read1,SWAN,BIRD,Study1,F,26,37,Test,User,-,,Recall,Recall1,4401,bird,100,2310,3051,1,1,,1
w10133134_lpc,smuv47njqq,"Mediated JOLs",1,84,2023-02-10T21:08:12+00:00,9.5182399749756,1,versionA_stim.csv,ReadVersion.csv,Read,Read1,CAKE,HAND,Study1,U,49,33,Test,User,-,,Recall,Recall1,9292,pie,0,7749,8096,0,0,,1
w10133134_lpc,smuv47njqq,"Mediated JOLs",1,85,2023-02-10T21:08:15+00:00,3.3401539325714,1,versionA_stim.csv,ReadVersion.csv,Read,Read1,WEDDING,FINGER,Study1,M,17,43,Test,User,-,,Recall,Recall1,3107,ring,60,1389,2070,0,0,,1
w10133134_lpc,smuv47njqq,"Mediated JOLs",1,86,2023-02-10T21:08:19+00:00,4.2067720890045,1,versionA_stim.csv,ReadVersion.csv,Read,Read1,SIP,DRINK,Study1,F,32,41,Test,User,-,,Recall,Recall1,3976,drink,100,2081,2907,1,1,,1
w10133134_lpc,smuv47njqq,"Mediated JOLs",1,87,2023-02-10T21:08:22+00:00,2.9963760375977,1,versionA_stim.csv,ReadVersion.csv,Read,Read1,KEYS,ROD,Study1,U,45,14,Test,User,-,,Recall,Recall1,2763,rod,100,1093,1531,1,1,,1
w10133134_lpc,smuv47njqq,"Mediated JOLs",1,88,2023-02-10T21:08:28+00:00,6.0927429199219,1,versionA_stim.csv,ReadVersion.csv,Read,Read1,BAT,BOUNCE,Study1,M,12,25,Test,User,-,,Recall,Recall1,5861,butter,50,3640,4562,0,0,,1
w10133134_lpc,smuv47njqq,"Mediated JOLs",1,89,2023-02-10T21:08:32+00:00,3.9605751037598,1,versionA_stim.csv,ReadVersion.csv,Read,Read1,WAR,QUIET,Study1,M,8,51,Test,User,-,,Recall,Recall1,3728,quite,80,1599,2555,0,1,,1
w10133134_lpc,smuv47njqq,"Mediated JOLs",1,90,2023-02-10T21:08:42+00:00,9.6048429012299,1,versionA_stim.csv,ReadVersion.csv,Read,Read1,CIRCLE,DANCE,Study1,M,13,13,Test,User,-,,Recall,Recall1,9367,frank,40,3872,8253,0,0,,1
w10133134_lpc,smuv47njqq,"Mediated JOLs",1,91,2023-02-10T21:08:46+00:00,4.0648601055145,1,versionA_stim.csv,ReadVersion.csv,Read,Read1,BEACH,BOX,Study1,M,7,7,Test,User,-,,Recall,Recall1,3839,box,100,2060,2559,1,1,,1
w10133134_lpc,smuv47njqq,"Mediated JOLs",1,92,2023-02-10T21:08:51+00:00,5.0133278369904,1,versionA_stim.csv,ReadVersion.csv,Read,Read1,ROOT,PLANT,Study1,F,25,30,Test,User,-,,Recall,Recall1,4793,plant,100,2935,3617,1,1,,1
w10133134_lpc,smuv47njqq,"Mediated JOLs",1,93,2023-02-10T21:08:58+00:00,7.4004170894623,1,versionA_stim.csv,ReadVersion.csv,Read,Read1,SHELL,SHAKE,Study1,U,43,32,Test,User,-,,Recall,Recall1,7181,slap,44.444444444444,1958,6107,0,0,,1
w10133134_lpc,smuv47njqq,"Mediated JOLs",1,94,2023-02-10T21:09:04+00:00,5.9859440326691,1,versionA_stim.csv,ReadVersion.csv,Read,Read1,HORSE,WHEEL,Study1,M,14,11,Test,User,-,,Recall,Recall1,5704,ride,22.222222222222,3869,4451,0,0,,1
w10133134_lpc,smuv47njqq,"Mediated JOLs",1,95,2023-02-10T21:09:07+00:00,3.1372539997101,1,versionA_stim.csv,ReadVersion.csv,Read,Read1,GIVE,STEAK,Study1,U,38,26,Test,User,-,,Recall,Recall1,2852,take,66.666666666667,1247,1673,0,0,,1
w10133134_lpc,smuv47njqq,"Mediated JOLs",1,96,2023-02-10T21:09:13+00:00,5.4561569690704,1,versionA_stim.csv,ReadVersion.csv,Read,Read1,HARD,COTTON,Study1,M,20,45,Test,User,-,,Recall,Recall1,5185,rough,18.181818181818,1589,4104,0,0,,1
w10133134_lpc,smuv47njqq,"Mediated JOLs",1,97,2023-02-10T21:09:17+00:00,4.408411026001,1,versionA_stim.csv,ReadVersion.csv,Read,Read1,DAY,DARK,Study1,M,18,18,Test,User,-,,Recall,Recall1,4181,night,0,2248,3068,0,0,,1
w10133134_lpc,smuv47njqq,"Mediated JOLs",1,98,2023-02-10T21:09:20+00:00,3.1073009967804,1,versionA_stim.csv,ReadVersion.csv,Read,Read1,TUNA,FISH,Study1,F,35,21,Test,User,-,,Recall,Recall1,2871,fish,100,1387,1839,1,1,,1
w10133134_lpc,smuv47njqq,"Mediated JOLs",1,99,2023-02-10T21:09:25+00:00,4.1682250499725,1,versionA_stim.csv,ReadVersion.csv,Read,Read1,FUZZY,BANG,Study1,U,50,15,Test,User,-,,Recall,Recall1,3941,furry,0,1968,2685,0,0,,1
w10133134_lpc,smuv47njqq,"Mediated JOLs",1,100,2023-02-10T21:09:31+00:00,6.184839963913,1,versionA_stim.csv,ReadVersion.csv,Read,Read1,MEAT,KEYS,Study1,U,41,44,Test,User,-,,Recall,Recall1,5950,bang,0,4303,4872,0,0,,1
w10133134_lpc,smuv47njqq,"Mediated JOLs",1,101,2023-02-10T21:09:36+00:00,4.8527958393097,1,versionA_stim.csv,ReadVersion.csv,Read,Read1,WORD,SENTENCE,Study1,F,27,20,Test,User,-,,Recall,Recall1,4622,sentence,100,2089,3458,1,1,,1
w10133134_lpc,smuv47njqq,"Mediated JOLs",1,102,2023-02-10T21:09:39+00:00,3.3259332180023,1,versionA_stim.csv,ReadVersion.csv,Read,Read1,CRACKLE,ELECTION,Study1,U,39,28,Test,User,-,,Recall,Recall1,3092,pop,18.181818181818,1615,1970,0,0,,1
w10133134_lpc,smuv47njqq,"Mediated JOLs",1,103,2023-02-10T21:09:43+00:00,4.2627079486847,1,versionA_stim.csv,ReadVersion.csv,Read,Read1,LISTEN,FICTION,Study1,U,44,22,Test,User,-,,Recall,Recall1,4036,talk,18.181818181818,2346,2907,0,0,,1
w10133134_lpc,smuv47njqq,"Mediated JOLs",1,104,2023-02-10T21:09:47+00:00,3.6662888526917,1,versionA_stim.csv,ReadVersion.csv,Read,Read1,NAP,SLEEP,Study1,F,29,24,Test,User,-,,Recall,Recall1,3432,sleep,100,1253,2344,1,1,,1
w10133134_lpc,smuv47njqq,"Mediated JOLs",1,105,2023-02-10T21:09:51+00:00,4.2120151519775,1,versionA_stim.csv,ReadVersion.csv,Read,Read1,CRY,BOTTLE,Study1,M,16,23,Test,User,-,,Recall,Recall1,3983,happy,0,1914,2870,0,0,,1
w10133134_lpc,smuv47njqq,"Mediated JOLs",1,106,2023-02-10T21:10:15+00:00,23.719406843185,1,versionA_stim.csv,ReadVersion.csv,Read,Read1,,,,,,0,Instruct,-,10,"You will now be presented with a new set of word pairs. Please study each pair. Remember that your memory will be tested! When finished, press Enter to move to the next pair.",Initial_Instruct,Instruct4,23489,,,-1,-1,,,,1
w10133134_lpc,smuv47njqq,"Mediated JOLs",1,107,2023-02-10T21:10:16+00:00,1.1615371704102,1,versionA_stim.csv,ReadVersion.csv,Read,Read1,,,,,,0,Instruct,User,-,"Press Enter when you are readty to begin",,Instruct11,889,,,-1,-1,,,,1
w10133134_lpc,smuv47njqq,"Mediated JOLs",1,108,2023-02-10T21:10:17+00:00,1.5820698738098,1,versionA_stim.csv,ReadVersion.csv,Read,Read1,NOODLE,STRING,BUFFER4,Buffer,107,107,Study,User,-,,Study/JOL,BUFFER2,1328,,,-1,-1,,,,1
w10133134_lpc,smuv47njqq,"Mediated JOLs",1,109,2023-02-10T21:10:19+00:00,1.2924289703369,1,versionA_stim.csv,ReadVersion.csv,Read,Read1,SPRING,MARCH,BUFFER3,Buffer,59,61,Study,User,-,,Study/JOL,BUFFER2,1069,,,-1,-1,,,,1
w10133134_lpc,smuv47njqq,"Mediated JOLs",1,110,2023-02-10T21:10:20+00:00,1.1781980991364,1,versionA_stim.csv,ReadVersion.csv,Read,Read1,ICE,FROZEN,BUFFER4,Buffer,109,110,Study,User,-,,Study/JOL,BUFFER2,955,,,-1,-1,,,,1
w10133134_lpc,smuv47njqq,"Mediated JOLs",1,111,2023-02-10T21:10:21+00:00,1.1266150474548,1,versionA_stim.csv,ReadVersion.csv,Read,Read1,THING,STUFF,BUFFER2,Buffer,55,56,Study,User,-,,Study/JOL,BUFFER2,882,,,-1,-1,,,,1
w10133134_lpc,smuv47njqq,"Mediated JOLs",1,112,2023-02-10T21:10:22+00:00,1.2342789173126,1,versionA_stim.csv,ReadVersion.csv,Read,Read1,CAMP,ADVENTURE,BUFFER4,Buffer,110,108,Study,User,-,,Study/JOL,BUFFER2,943,,,-1,-1,,,,1
w10133134_lpc,smuv47njqq,"Mediated JOLs",1,113,2023-02-10T21:10:24+00:00,1.4156510829926,1,versionA_stim.csv,ReadVersion.csv,Read,Read1,SICK,HIDE,Study2,U,100,103,Study,User,-,,Study/JOL,"Study Phase2",1196,,,-1,-1,,,,1
w10133134_lpc,smuv47njqq,"Mediated JOLs",1,114,2023-02-10T21:10:25+00:00,1.4709558486938,1,versionA_stim.csv,ReadVersion.csv,Read,Read1,LEAGUE,BASEBALL,Study2,F,84,93,Study,User,-,,Study/JOL,"Study Phase2",1243,,,-1,-1,,,,1
w10133134_lpc,smuv47njqq,"Mediated JOLs",1,115,2023-02-10T21:10:28+00:00,2.8367581367493,1,versionA_stim.csv,ReadVersion.csv,Read,Read1,ARTERY,BRONZE,Study2,U,103,92,Study,User,-,,Study/JOL,"Study Phase2",2614,,,-1,-1,,,,1
w10133134_lpc,smuv47njqq,"Mediated JOLs",1,116,2023-02-10T21:10:29+00:00,0.85597801208496,1,versionA_stim.csv,ReadVersion.csv,Read,Read1,REALITY,ISLAND,Study2,M,64,68,Study,User,-,,Study/JOL,"Study Phase2",625,,,-1,-1,,,,1
w10133134_lpc,smuv47njqq,"Mediated JOLs",1,117,2023-02-10T21:10:29+00:00,0.48996686935425,1,versionA_stim.csv,ReadVersion.csv,Read,Read1,KING,VASE,Study2,U,91,81,Study,User,-,,Study/JOL,"Study Phase2",264,,,-1,-1,,,,1
w10133134_lpc,smuv47njqq,"Mediated JOLs",1,118,2023-02-10T21:10:31+00:00,1.4471580982208,1,versionA_stim.csv,ReadVersion.csv,Read,Read1,SOAP,DRINK,Study2,M,67,77,Study,User,-,,Study/JOL,"Study Phase2",1221,,,-1,-1,,,,1
w10133134_lpc,smuv47njqq,"Mediated JOLs",1,119,2023-02-10T21:10:33+00:00,1.969477891922,1,versionA_stim.csv,ReadVersion.csv,Read,Read1,HERD,COW,Study2,F,88,71,Study,User,-,,Study/JOL,"Study Phase2",1743,,,-1,-1,,,,1
w10133134_lpc,smuv47njqq,"Mediated JOLs",1,120,2023-02-10T21:10:34+00:00,1.1734440326691,1,versionA_stim.csv,ReadVersion.csv,Read,Read1,ATTIRE,CLOTHES,Study2,F,79,90,Study,User,-,,Study/JOL,"Study Phase2",946,,,-1,-1,,,,1
w10133134_lpc,smuv47njqq,"Mediated JOLs",1,121,2023-02-10T21:10:37+00:00,2.6145701408386,1,versionA_stim.csv,ReadVersion.csv,Read,Read1,CHISEL,HAMMER,Study2,F,78,75,Study,User,-,,Study/JOL,"Study Phase2",2383,,,-1,-1,,,,1
w10133134_lpc,smuv47njqq,"Mediated JOLs",1,122,2023-02-10T21:10:38+00:00,1.1913828849792,1,versionA_stim.csv,ReadVersion.csv,Read,Read1,MIRROR,CHILDREN,Study2,U,104,80,Study,User,-,,Study/JOL,"Study Phase2",963,,,-1,-1,,,,1
w10133134_lpc,smuv47njqq,"Mediated JOLs",1,123,2023-02-10T21:10:39+00:00,1.6020219326019,1,versionA_stim.csv,ReadVersion.csv,Read,Read1,LEASE,TOIL,Study2,U,101,84,Study,User,-,,Study/JOL,"Study Phase2",1371,,,-1,-1,,,,1
w10133134_lpc,smuv47njqq,"Mediated JOLs",1,124,2023-02-10T21:10:41+00:00,1.3823089599609,1,versionA_stim.csv,ReadVersion.csv,Read,Read1,WASP,BUG,Study2,F,89,101,Study,User,-,,Study/JOL,"Study Phase2",1156,,,-1,-1,,,,1
w10133134_lpc,smuv47njqq,"Mediated JOLs",1,125,2023-02-10T21:10:42+00:00,1.3051240444183,1,versionA_stim.csv,ReadVersion.csv,Read,Read1,BLAZE,FIRE,Study2,F,81,99,Study,User,-,,Study/JOL,"Study Phase2",1088,,,-1,-1,,,,1
w10133134_lpc,smuv47njqq,"Mediated JOLs",1,126,2023-02-10T21:10:44+00:00,1.9487421512604,1,versionA_stim.csv,ReadVersion.csv,Read,Read1,PUSH,CLUTTER,Study2,U,96,76,Study,User,-,,Study/JOL,"Study Phase2",1720,,,-1,-1,,,,1
w10133134_lpc,smuv47njqq,"Mediated JOLs",1,127,2023-02-10T21:10:46+00:00,1.5273280143738,1,versionA_stim.csv,ReadVersion.csv,Read,Read1,FEUD,FIGHT,Study2,F,86,87,Study,User,-,,Study/JOL,"Study Phase2",1310,,,-1,-1,,,,1
w10133134_lpc,smuv47njqq,"Mediated JOLs",1,128,2023-02-10T21:10:47+00:00,1.4719898700714,1,versionA_stim.csv,ReadVersion.csv,Read,Read1,EYES,SMELL,Study2,M,65,83,Study,User,-,,Study/JOL,"Study Phase2",1245,,,-1,-1,,,,1
w10133134_lpc,smuv47njqq,"Mediated JOLs",1,129,2023-02-10T21:10:49+00:00,2.4803991317749,1,versionA_stim.csv,ReadVersion.csv,Read,Read1,BRIDGE,WATER,Study2,F,90,102,Study,User,-,,Study/JOL,"Study Phase2",2254,,,-1,-1,,,,1
w10133134_lpc,smuv47njqq,"Mediated JOLs",1,130,2023-02-10T21:10:51+00:00,1.390781879425,1,versionA_stim.csv,ReadVersion.csv,Read,Read1,VALLEY,PEAK,Study2,M,73,85,Study,User,-,,Study/JOL,"Study Phase2",1153,,,-1,-1,,,,1
w10133134_lpc,smuv47njqq,"Mediated JOLs",1,131,2023-02-10T21:10:53+00:00,1.8165159225464,1,versionA_stim.csv,ReadVersion.csv,Read,Read1,DIETARY,SACK,Study2,U,97,73,Study,User,-,,Study/JOL,"Study Phase2",1594,,,-1,-1,,,,1
w10133134_lpc,smuv47njqq,"Mediated JOLs",1,132,2023-02-10T21:10:54+00:00,1.5224311351776,1,versionA_stim.csv,ReadVersion.csv,Read,Read1,ART,WOLF,Study2,U,93,64,Study,User,-,,Study/JOL,"Study Phase2",1298,,,-1,-1,,,,1
w10133134_lpc,smuv47njqq,"Mediated JOLs",1,133,2023-02-10T21:10:56+00:00,2.2408158779144,1,versionA_stim.csv,ReadVersion.csv,Read,Read1,INCENSE,SMELL,Study2,F,83,97,Study,User,-,,Study/JOL,"Study Phase2",2033,,,-1,-1,,,,1
w10133134_lpc,smuv47njqq,"Mediated JOLs",1,134,2023-02-10T21:10:58+00:00,1.0745751857758,1,versionA_stim.csv,ReadVersion.csv,Read,Read1,WINDOW,KNOB,Study2,M,74,88,Study,User,-,,Study/JOL,"Study Phase2",842,,,-1,-1,,,,1
w10133134_lpc,smuv47njqq,"Mediated JOLs",1,135,2023-02-10T21:10:59+00:00,1.1742630004883,1,versionA_stim.csv,ReadVersion.csv,Read,Read1,NURSE,LAWYER,Study2,M,66,106,Study,User,-,,Study/JOL,"Study Phase2",939,,,-1,-1,,,,1
w10133134_lpc,smuv47njqq,"Mediated JOLs",1,136,2023-02-10T21:11:00+00:00,1.6664578914642,1,versionA_stim.csv,ReadVersion.csv,Read,Read1,CASH,LEG,Study2,U,105,74,Study,User,-,,Study/JOL,"Study Phase2",1438,,,-1,-1,,,,1
w10133134_lpc,smuv47njqq,"Mediated JOLs",1,137,2023-02-10T21:11:02+00:00,1.4180719852448,1,versionA_stim.csv,ReadVersion.csv,Read,Read1,CHILL,COLD,Study2,F,87,67,Study,User,-,,Study/JOL,"Study Phase2",1198,,,-1,-1,,,,1
w10133134_lpc,smuv47njqq,"Mediated JOLs",1,138,2023-02-10T21:11:03+00:00,1.2958581447601,1,versionA_stim.csv,ReadVersion.csv,Read,Read1,SUMMER,SNOW,Study2,M,61,96,Study,User,-,,Study/JOL,"Study Phase2",1055,,,-1,-1,,,,1
w10133134_lpc,smuv47njqq,"Mediated JOLs",1,139,2023-02-10T21:11:05+00:00,1.4808077812195,1,versionA_stim.csv,ReadVersion.csv,Read,Read1,GRILL,THIGH,Study2,M,72,63,Study,User,-,,Study/JOL,"Study Phase2",1246,,,-1,-1,,,,1
w10133134_lpc,smuv47njqq,"Mediated JOLs",1,140,2023-02-10T21:11:08+00:00,3.2204790115356,1,versionA_stim.csv,ReadVersion.csv,Read,Read1,BOTH,OUNCE,Study2,U,102,78,Study,User,-,,Study/JOL,"Study Phase2",2990,,,-1,-1,,,,1
w10133134_lpc,smuv47njqq,"Mediated JOLs",1,141,2023-02-10T21:11:10+00:00,2.1866300106049,1,versionA_stim.csv,ReadVersion.csv,Read,Read1,BENCH,HORN,Study2,U,98,69,Study,User,-,,Study/JOL,"Study Phase2",1952,,,-1,-1,,,,1
w10133134_lpc,smuv47njqq,"Mediated JOLs",1,142,2023-02-10T21:11:13+00:00,2.5472271442413,1,versionA_stim.csv,ReadVersion.csv,Read,Read1,HAPPY,CAR,Study2,U,92,79,Study,User,-,,Study/JOL,"Study Phase2",2258,,,-1,-1,,,,1
w10133134_lpc,smuv47njqq,"Mediated JOLs",1,143,2023-02-10T21:11:14+00:00,1.7411639690399,1,versionA_stim.csv,ReadVersion.csv,Read,Read1,SUGAR,RIDDLE,Study2,U,95,91,Study,User,-,,Study/JOL,"Study Phase2",1512,,,-1,-1,,,,1
w10133134_lpc,smuv47njqq,"Mediated JOLs",1,144,2023-02-10T21:11:17+00:00,2.5314998626709,1,versionA_stim.csv,ReadVersion.csv,Read,Read1,RAZOR,MUSCLE,Study2,M,75,65,Study,User,-,,Study/JOL,"Study Phase2",2304,,,-1,-1,,,,1
w10133134_lpc,smuv47njqq,"Mediated JOLs",1,145,2023-02-10T21:11:19+00:00,2.6864030361176,1,versionA_stim.csv,ReadVersion.csv,Read,Read1,HEAVY,FEATHER,Study2,M,68,86,Study,User,-,,Study/JOL,"Study Phase2",2451,,,-1,-1,,,,1
w10133134_lpc,smuv47njqq,"Mediated JOLs",1,146,2023-02-10T21:11:21+00:00,1.6286561489105,1,versionA_stim.csv,ReadVersion.csv,Read,Read1,SCHOOL,STOP,Study2,M,62,82,Study,User,-,,Study/JOL,"Study Phase2",1385,,,-1,-1,,,,1
w10133134_lpc,smuv47njqq,"Mediated JOLs",1,147,2023-02-10T21:11:23+00:00,2.2576158046722,1,versionA_stim.csv,ReadVersion.csv,Read,Read1,CACTUS,PLANT,Study2,F,76,89,Study,User,-,,Study/JOL,"Study Phase2",2023,,,-1,-1,,,,1
w10133134_lpc,smuv47njqq,"Mediated JOLs",1,148,2023-02-10T21:11:25+00:00,2.1224341392517,1,versionA_stim.csv,ReadVersion.csv,Read,Read1,RAKE,SEED,Study2,M,69,104,Study,User,-,,Study/JOL,"Study Phase2",1886,,,-1,-1,,,,1
w10133134_lpc,smuv47njqq,"Mediated JOLs",1,149,2023-02-10T21:11:27+00:00,1.8805658817291,1,versionA_stim.csv,ReadVersion.csv,Read,Read1,DEATH,BUSINESS,Study2,U,99,62,Study,User,-,,Study/JOL,"Study Phase2",1650,,,-1,-1,,,,1
w10133134_lpc,smuv47njqq,"Mediated JOLs",1,150,2023-02-10T21:11:29+00:00,1.4481151103973,1,versionA_stim.csv,ReadVersion.csv,Read,Read1,DOCUMENT,PAPER,Study2,F,82,72,Study,User,-,,Study/JOL,"Study Phase2",1223,,,-1,-1,,,,1
w10133134_lpc,smuv47njqq,"Mediated JOLs",1,151,2023-02-10T21:11:30+00:00,1.2246060371399,1,versionA_stim.csv,ReadVersion.csv,Read,Read1,PANTS,COLLAR,Study2,M,63,66,Study,User,-,,Study/JOL,"Study Phase2",984,,,-1,-1,,,,1
w10133134_lpc,smuv47njqq,"Mediated JOLs",1,152,2023-02-10T21:11:33+00:00,2.4695959091187,1,versionA_stim.csv,ReadVersion.csv,Read,Read1,TRAP,CAVE,Study2,M,70,98,Study,User,-,,Study/JOL,"Study Phase2",2247,,,-1,-1,,,,1
w10133134_lpc,smuv47njqq,"Mediated JOLs",1,153,2023-02-10T21:11:34+00:00,1.3747191429138,1,versionA_stim.csv,ReadVersion.csv,Read,Read1,OVEN,BASKET,Study2,M,71,70,Study,User,-,,Study/JOL,"Study Phase2",1146,,,-1,-1,,,,1
w10133134_lpc,smuv47njqq,"Mediated JOLs",1,154,2023-02-10T21:11:35+00:00,1.4300138950348,1,versionA_stim.csv,ReadVersion.csv,Read,Read1,STRONG,ACCIDENT,Study2,U,94,100,Study,User,-,,Study/JOL,"Study Phase2",1197,,,-1,-1,,,,1
w10133134_lpc,smuv47njqq,"Mediated JOLs",1,155,2023-02-10T21:11:36+00:00,1.1235570907593,1,versionA_stim.csv,ReadVersion.csv,Read,Read1,CHERRY,RED,Study2,F,80,95,Study,User,-,,Study/JOL,"Study Phase2",902,,,-1,-1,,,,1
w10133134_lpc,smuv47njqq,"Mediated JOLs",1,156,2023-02-10T21:11:38+00:00,1.4397618770599,1,versionA_stim.csv,ReadVersion.csv,Read,Read1,CHOP,CUT,Study2,F,77,105,Study,User,-,,Study/JOL,"Study Phase2",1219,,,-1,-1,,,,1
w10133134_lpc,smuv47njqq,"Mediated JOLs",1,157,2023-02-10T21:11:39+00:00,1.3210301399231,1,versionA_stim.csv,ReadVersion.csv,Read,Read1,HORNET,STING,Study2,F,85,94,Study,User,-,,Study/JOL,"Study Phase2",1095,,,-1,-1,,,,1
w10133134_lpc,smuv47njqq,"Mediated JOLs",1,158,2023-02-10T21:11:41+00:00,1.4682137966156,1,versionA_stim.csv,ReadVersion.csv,Read,Read1,SHERRIF,POLICE,BUFFER2,Buffer,52,52,Study,User,-,,Study/JOL,BUFFER2,1239,,,-1,-1,,,,1
w10133134_lpc,smuv47njqq,"Mediated JOLs",1,159,2023-02-10T21:11:42+00:00,1.622631072998,1,versionA_stim.csv,ReadVersion.csv,Read,Read1,MOON,SPACE,BUFFER2,Buffer,54,55,Study,User,-,,Study/JOL,BUFFER2,1387,,,-1,-1,,,,1
w10133134_lpc,smuv47njqq,"Mediated JOLs",1,160,2023-02-10T21:11:44+00:00,1.2266900539398,1,versionA_stim.csv,ReadVersion.csv,Read,Read1,MALT,CHOCOLATE,BUFFER2,Buffer,53,53,Study,User,-,,Study/JOL,BUFFER2,998,,,-1,-1,,,,1
w10133134_lpc,smuv47njqq,"Mediated JOLs",1,161,2023-02-10T21:11:45+00:00,1.8151469230652,1,versionA_stim.csv,ReadVersion.csv,Read,Read1,GEESE,GOOSE,BUFFER2,Buffer,51,54,Study,User,-,,Study/JOL,BUFFER2,1589,,,-1,-1,,,,1
w10133134_lpc,smuv47njqq,"Mediated JOLs",1,162,2023-02-10T21:11:47+00:00,2.0467901229858,1,versionA_stim.csv,ReadVersion.csv,Read,Read1,DAYS,WEAKS,BUFFER3,Buffer,56,60,Study,User,-,,Study/JOL,BUFFER2,1809,,,-1,-1,,,,1
w10133134_lpc,smuv47njqq,"Mediated JOLs",1,163,2023-02-10T21:11:50+00:00,2.4050920009613,1,versionA_stim.csv,ReadVersion.csv,Read,Read1,,,,,,0,Instruct,User,-,"You have completed this section. Please press Enter.",Filler_Instruction,Instruct2,2182,,,-1,-1,,,,1
w10133134_lpc,smuv47njqq,"Mediated JOLs",1,164,2023-02-10T21:13:52+00:00,121.75509095192,1,versionA_stim.csv,ReadVersion.csv,Read,Read1,,,,,,0,FreeRecall,120,120,"Please list the 50 US states in alphabetical order. The task will automatically advance to the next screen after two minutes.",,Filler1,120967,"alabama alaska arizona arkansa california colorado connecticut delaware georgia hawaii idaho illinois indiana iowa kansas kentucky loisiana maine maryland massechutes micchang minesota mississipi missouri montana nebraska nevada new hampshier new jersey new mexico new york ",0,2436,110769,0,0,,1
w10133134_lpc,smuv47njqq,"Mediated JOLs",1,165,2023-02-10T21:14:03+00:00,11.044422864914,1,versionA_stim.csv,ReadVersion.csv,Read,Read1,,,,,,0,Instruct,-,10,"You will now be presented with the first word from each of the previously studied item pairs. Please type the missing word. If you do not know the word, you may guess or press Enter to skip forward to the next pair.",,Instruct3,10760,,,-1,-1,,,,1
w10133134_lpc,smuv47njqq,"Mediated JOLs",1,166,2023-02-10T21:14:08+00:00,5.7617080211639,1,versionA_stim.csv,ReadVersion.csv,Read,Read1,HEAVY,FEATHER,Study2,M,68,86,Test,User,-,,Recall,Recall2,5514,feather,100,2915,4079,1,1,,1
w10133134_lpc,smuv47njqq,"Mediated JOLs",1,167,2023-02-10T21:14:14+00:00,5.6784660816193,1,versionA_stim.csv,ReadVersion.csv,Read,Read1,BENCH,HORN,Study2,U,98,69,Test,User,-,,Recall,Recall2,5444,,0,-1,-1,0,0,,1
w10133134_lpc,smuv47njqq,"Mediated JOLs",1,168,2023-02-10T21:14:18+00:00,4.1874539852142,1,versionA_stim.csv,ReadVersion.csv,Read,Read1,HORNET,STING,Study2,F,85,94,Test,User,-,,Recall,Recall2,3956,wasp,22.222222222222,2509,3271,0,0,,1
w10133134_lpc,smuv47njqq,"Mediated JOLs",1,169,2023-02-10T21:14:21+00:00,2.615807056427,1,versionA_stim.csv,ReadVersion.csv,Read,Read1,CHERRY,RED,Study2,F,80,95,Test,User,-,,Recall,Recall2,2386,red,100,1419,1914,1,1,,1
w10133134_lpc,smuv47njqq,"Mediated JOLs",1,170,2023-02-10T21:14:25+00:00,4.3599569797516,1,versionA_stim.csv,ReadVersion.csv,Read,Read1,ARTERY,BRONZE,Study2,U,103,92,Test,User,-,,Recall,Recall2,4123,heart,18.181818181818,2733,3646,0,0,,1
w10133134_lpc,smuv47njqq,"Mediated JOLs",1,171,2023-02-10T21:14:28+00:00,2.4409730434418,1,versionA_stim.csv,ReadVersion.csv,Read,Read1,WINDOW,KNOB,Study2,M,74,88,Test,User,-,,Recall,Recall2,2219,,0,-1,-1,0,0,,1
w10133134_lpc,smuv47njqq,"Mediated JOLs",1,172,2023-02-10T21:14:31+00:00,2.9875960350037,1,versionA_stim.csv,ReadVersion.csv,Read,Read1,CHISEL,HAMMER,Study2,F,78,75,Test,User,-,,Recall,Recall2,2754,hammer,100,1484,2270,1,1,,1
w10133134_lpc,smuv47njqq,"Mediated JOLs",1,173,2023-02-10T21:14:33+00:00,1.9450249671936,1,versionA_stim.csv,ReadVersion.csv,Read,Read1,BOTH,OUNCE,Study2,U,102,78,Test,User,-,,Recall,Recall2,1713,,0,-1,-1,0,0,,1
w10133134_lpc,smuv47njqq,"Mediated JOLs",1,174,2023-02-10T21:14:36+00:00,3.5398199558258,1,versionA_stim.csv,ReadVersion.csv,Read,Read1,HAPPY,CAR,Study2,U,92,79,Test,User,-,,Recall,Recall2,3304,,0,-1,-1,0,0,,1
w10133134_lpc,smuv47njqq,"Mediated JOLs",1,175,2023-02-10T21:14:39+00:00,2.5170290470123,1,versionA_stim.csv,ReadVersion.csv,Read,Read1,EYES,SMELL,Study2,M,65,83,Test,User,-,,Recall,Recall2,2287,smell,100,1008,1739,1,1,,1
w10133134_lpc,smuv47njqq,"Mediated JOLs",1,176,2023-02-10T21:14:42+00:00,3.5075118541718,1,versionA_stim.csv,ReadVersion.csv,Read,Read1,VALLEY,PEAK,Study2,M,73,85,Test,User,-,,Recall,Recall2,3279,peak,100,1992,2693,1,1,,1
w10133134_lpc,smuv47njqq,"Mediated JOLs",1,177,2023-02-10T21:14:47+00:00,4.5871860980988,1,versionA_stim.csv,ReadVersion.csv,Read,Read1,DIETARY,SACK,Study2,U,97,73,Test,User,-,,Recall,Recall2,4362,sack,100,2964,3837,1,1,,1
w10133134_lpc,smuv47njqq,"Mediated JOLs",1,178,2023-02-10T21:14:48+00:00,1.7347919940948,1,versionA_stim.csv,ReadVersion.csv,Read,Read1,CASH,LEG,Study2,U,105,74,Test,User,-,,Recall,Recall2,1504,,0,-1,-1,0,0,,1
w10133134_lpc,smuv47njqq,"Mediated JOLs",1,179,2023-02-10T21:14:52+00:00,3.1112179756165,1,versionA_stim.csv,ReadVersion.csv,Read,Read1,LEAGUE,BASEBALL,Study2,F,84,93,Test,User,-,,Recall,Recall2,2861,baseball,100,1068,2320,1,1,,1
w10133134_lpc,smuv47njqq,"Mediated JOLs",1,180,2023-02-10T21:14:55+00:00,3.4232249259949,1,versionA_stim.csv,ReadVersion.csv,Read,Read1,WASP,BUG,Study2,F,89,101,Test,User,-,,Recall,Recall2,3200,sting,25,1671,2661,0,0,,1
w10133134_lpc,smuv47njqq,"Mediated JOLs",1,181,2023-02-10T21:14:57+00:00,2.4676010608673,1,versionA_stim.csv,ReadVersion.csv,Read,Read1,PANTS,COLLAR,Study2,M,63,66,Test,User,-,,Recall,Recall2,2241,,0,-1,-1,0,0,,1
w10133134_lpc,smuv47njqq,"Mediated JOLs",1,182,2023-02-10T21:15:02+00:00,4.4418981075287,1,versionA_stim.csv,ReadVersion.csv,Read,Read1,SUGAR,RIDDLE,Study2,U,95,91,Test,User,-,,Recall,Recall2,4195,,0,-1,-1,0,0,,1
w10133134_lpc,smuv47njqq,"Mediated JOLs",1,183,2023-02-10T21:15:04+00:00,2.2715339660645,1,versionA_stim.csv,ReadVersion.csv,Read,Read1,RAZOR,MUSCLE,Study2,M,75,65,Test,User,-,,Recall,Recall2,2055,,0,-1,-1,0,0,,1
w10133134_lpc,smuv47njqq,"Mediated JOLs",1,184,2023-02-10T21:15:07+00:00,2.8251769542694,1,versionA_stim.csv,ReadVersion.csv,Read,Read1,REALITY,ISLAND,Study2,M,64,68,Test,User,-,,Recall,Recall2,2595,,0,-1,-1,0,0,,1
w10133134_lpc,smuv47njqq,"Mediated JOLs",1,185,2023-02-10T21:15:11+00:00,3.6998250484467,1,versionA_stim.csv,ReadVersion.csv,Read,Read1,CHOP,CUT,Study2,F,77,105,Test,User,-,,Recall,Recall2,3476,crush,50,2055,2961,0,0,,1
w10133134_lpc,smuv47njqq,"Mediated JOLs",1,186,2023-02-10T21:15:14+00:00,2.9996528625488,1,versionA_stim.csv,ReadVersion.csv,Read,Read1,FEUD,FIGHT,Study2,F,86,87,Test,User,-,,Recall,Recall2,2771,fight,100,1445,2244,1,1,,1
w10133134_lpc,smuv47njqq,"Mediated JOLs",1,187,2023-02-10T21:15:18+00:00,4.4661931991577,1,versionA_stim.csv,ReadVersion.csv,Read,Read1,LEASE,TOIL,Study2,U,101,84,Test,User,-,,Recall,Recall2,4214,artery,20,2396,3785,0,0,,1
w10133134_lpc,smuv47njqq,"Mediated JOLs",1,188,2023-02-10T21:15:21+00:00,2.8357138633728,1,versionA_stim.csv,ReadVersion.csv,Read,Read1,BLAZE,FIRE,Study2,F,81,99,Test,User,-,,Recall,Recall2,2596,fire,100,1137,2237,1,1,,1
w10133134_lpc,smuv47njqq,"Mediated JOLs",1,189,2023-02-10T21:15:23+00:00,2.094633102417,1,versionA_stim.csv,ReadVersion.csv,Read,Read1,CACTUS,PLANT,Study2,F,76,89,Test,User,-,,Recall,Recall2,1866,,0,-1,-1,0,0,,1
w10133134_lpc,smuv47njqq,"Mediated JOLs",1,190,2023-02-10T21:15:27+00:00,3.9997909069061,1,versionA_stim.csv,ReadVersion.csv,Read,Read1,SUMMER,SNOW,Study2,M,61,96,Test,User,-,,Recall,Recall2,3764,,0,-1,-1,0,0,,1
w10133134_lpc,smuv47njqq,"Mediated JOLs",1,191,2023-02-10T21:15:30+00:00,2.7082679271698,1,versionA_stim.csv,ReadVersion.csv,Read,Read1,SCHOOL,STOP,Study2,M,62,82,Test,User,-,,Recall,Recall2,2487,bus,28.571428571429,1694,2031,0,0,,1
w10133134_lpc,smuv47njqq,"Mediated JOLs",1,192,2023-02-10T21:15:34+00:00,4.4736390113831,1,versionA_stim.csv,ReadVersion.csv,Read,Read1,DEATH,BUSINESS,Study2,U,99,62,Test,User,-,,Recall,Recall2,4232,buisness,87.5,1877,3777,0,1,,1
w10133134_lpc,smuv47njqq,"Mediated JOLs",1,193,2023-02-10T21:15:37+00:00,2.7591731548309,1,versionA_stim.csv,ReadVersion.csv,Read,Read1,CHILL,COLD,Study2,F,87,67,Test,User,-,,Recall,Recall2,2529,cold,100,1537,2096,1,1,,1
w10133134_lpc,smuv47njqq,"Mediated JOLs",1,194,2023-02-10T21:15:40+00:00,3.3604629039764,1,versionA_stim.csv,ReadVersion.csv,Read,Read1,DOCUMENT,PAPER,Study2,F,82,72,Test,User,-,,Recall,Recall2,3125,,0,-1,-1,0,0,,1
w10133134_lpc,smuv47njqq,"Mediated JOLs",1,195,2023-02-10T21:15:43+00:00,2.6159830093384,1,versionA_stim.csv,ReadVersion.csv,Read,Read1,TRAP,CAVE,Study2,M,70,98,Test,User,-,,Recall,Recall2,2372,cave,100,1578,1947,1,1,,1
w10133134_lpc,smuv47njqq,"Mediated JOLs",1,196,2023-02-10T21:15:45+00:00,2.159334897995,1,versionA_stim.csv,ReadVersion.csv,Read,Read1,SICK,HIDE,Study2,U,100,103,Test,User,-,,Recall,Recall2,1926,,0,-1,-1,0,0,,1
w10133134_lpc,smuv47njqq,"Mediated JOLs",1,197,2023-02-10T21:15:48+00:00,2.4443712234497,1,versionA_stim.csv,ReadVersion.csv,Read,Read1,RAKE,SEED,Study2,M,69,104,Test,User,-,,Recall,Recall2,2182,seed,100,1130,1782,1,1,,1
w10133134_lpc,smuv47njqq,"Mediated JOLs",1,198,2023-02-10T21:15:51+00:00,3.5521709918976,1,versionA_stim.csv,ReadVersion.csv,Read,Read1,STRONG,ACCIDENT,Study2,U,94,100,Test,User,-,,Recall,Recall2,3298,feather,26.666666666667,1777,2730,0,0,,1
w10133134_lpc,smuv47njqq,"Mediated JOLs",1,199,2023-02-10T21:15:53+00:00,1.8529109954834,1,versionA_stim.csv,ReadVersion.csv,Read,Read1,GRILL,THIGH,Study2,M,72,63,Test,User,-,,Recall,Recall2,1630,,0,-1,-1,0,0,,1
w10133134_lpc,smuv47njqq,"Mediated JOLs",1,200,2023-02-10T21:15:58+00:00,5.2704949378967,1,versionA_stim.csv,ReadVersion.csv,Read,Read1,HERD,COW,Study2,F,88,71,Test,User,-,,Recall,Recall2,5031,sheep,0,1337,4543,0,0,,1
w10133134_lpc,smuv47njqq,"Mediated JOLs",1,201,2023-02-10T21:16:02+00:00,3.5633940696716,1,versionA_stim.csv,ReadVersion.csv,Read,Read1,OVEN,BASKET,Study2,M,71,70,Test,User,-,,Recall,Recall2,3337,basket,100,1877,2791,1,1,,1
w10133134_lpc,smuv47njqq,"Mediated JOLs",1,202,2023-02-10T21:16:05+00:00,3.2680649757385,1,versionA_stim.csv,ReadVersion.csv,Read,Read1,MIRROR,CHILDREN,Study2,U,104,80,Test,User,-,,Recall,Recall2,3041,,0,-1,-1,0,0,,1
w10133134_lpc,smuv47njqq,"Mediated JOLs",1,203,2023-02-10T21:16:08+00:00,3.2033898830414,1,versionA_stim.csv,ReadVersion.csv,Read,Read1,INCENSE,SMELL,Study2,F,83,97,Test,User,-,,Recall,Recall2,2962,smell,100,1795,2442,1,1,,1
w10133134_lpc,smuv47njqq,"Mediated JOLs",1,204,2023-02-10T21:16:10+00:00,1.9953210353851,1,versionA_stim.csv,ReadVersion.csv,Read,Read1,BRIDGE,WATER,Study2,F,90,102,Test,User,-,,Recall,Recall2,1769,,0,-1,-1,0,0,,1
w10133134_lpc,smuv47njqq,"Mediated JOLs",1,205,2023-02-10T21:16:13+00:00,2.1995298862457,1,versionA_stim.csv,ReadVersion.csv,Read,Read1,PUSH,CLUTTER,Study2,U,96,76,Test,User,-,,Recall,Recall2,1976,,0,-1,-1,0,0,,1
w10133134_lpc,smuv47njqq,"Mediated JOLs",1,206,2023-02-10T21:16:16+00:00,3.551765203476,1,versionA_stim.csv,ReadVersion.csv,Read,Read1,NURSE,LAWYER,Study2,M,66,106,Test,User,-,,Recall,Recall2,3316,lawyer,100,1215,2781,1,1,,1
w10133134_lpc,smuv47njqq,"Mediated JOLs",1,207,2023-02-10T21:16:19+00:00,2.7504069805145,1,versionA_stim.csv,ReadVersion.csv,Read,Read1,ART,WOLF,Study2,U,93,64,Test,User,-,,Recall,Recall2,2518,wolf,100,1212,2012,1,1,,1
w10133134_lpc,smuv47njqq,"Mediated JOLs",1,208,2023-02-10T21:16:21+00:00,1.9513490200043,1,versionA_stim.csv,ReadVersion.csv,Read,Read1,KING,VASE,Study2,U,91,81,Test,User,-,,Recall,Recall2,1713,,0,-1,-1,0,0,,1
w10133134_lpc,smuv47njqq,"Mediated JOLs",1,209,2023-02-10T21:16:26+00:00,5.4706327915192,1,versionA_stim.csv,ReadVersion.csv,Read,Read1,ATTIRE,CLOTHES,Study2,F,79,90,Test,User,-,,Recall,Recall2,5248,clothes,100,1971,4798,1,1,,1
w10133134_lpc,smuv47njqq,"Mediated JOLs",1,210,2023-02-10T21:16:30+00:00,3.4969050884247,1,versionA_stim.csv,ReadVersion.csv,Read,Read1,SOAP,DRINK,Study2,M,67,77,Test,User,-,,Recall,Recall2,3266,,0,-1,-1,0,0,,1
w10133134_lpc,smuv47njqq,"Mediated JOLs",1,211,2023-02-10T21:16:31+00:00,1.7095220088959,1,versionA_stim.csv,ReadVersion.csv,Read,Read1,,,,,,0,Instruct,User,-,"You have completed this section. Please press Enter.",,Instruct7,1494,,,-1,-1,,,,1
w10133134_lpc,smuv47njqq,"Mediated JOLs",1,212,2023-02-10T21:16:35+00:00,3.987734079361,1,versionA_stim.csv,ReadVersion.csv,Read,Read1,,,,,,0,Instruct,User,-,"The following screen will ask you a few questions abour your experience today. You must complete these questions to receive credit.",,Instruct8,3755,,,-1,-1,,,,1
