Username,ID,ExperimentName,Session,Trial,Date,TimeDif,"Condition Number","Stimuli File","Order File","Condition Description","Condition Notes",Stimuli*Cue,Stimuli*Answer,Stimuli*Shuffle,"Stimuli*Stimuli Notes",Stimuli*Value,Procedure*Item,"Procedure*Trial Type","Procedure*Max Time","Procedure*Min Time",Procedure*Text,"Procedure*Procedure Notes",Procedure*Shuffle,Response*RT,Response*Response,Response*Accuracy,Response*RTfirst,Response*RTlast,Response*strictAcc,Response*lenientAcc,Response*focus,Response*Focus
w10053729_jjm,vs82vatp7k,"Mediated JOLs",1,1,2023-03-10T06:19:01+00:00,7.7597198486328,3,versionB_stim.csv,ReadVersion.csv,Read,Read2,,,,,,0,Instruct,-,5,"In this section, you will be presented with a series of word pairs. Please study each word pair! Your memory will be tested!",Initial_Instruct,Instruct1,7600,,,-1,-1,,,,1
w10053729_jjm,vs82vatp7k,"Mediated JOLs",1,2,2023-03-10T06:19:03+00:00,1.9202351570129,3,versionB_stim.csv,ReadVersion.csv,Read,Read2,,,,,,0,Instruct,User,-,"You will now begin. Press Enter when you are ready to begin.",,Instruct16,1696,,,-1,-1,,,,1
w10053729_jjm,vs82vatp7k,"Mediated JOLs",1,3,2023-03-10T06:19:05+00:00,2.1554298400879,3,versionB_stim.csv,ReadVersion.csv,Read,Read2,MONTH,YEAR,BUFFER3,Buffer,2,2,Study,User,-,,Study/JOL,BUFFER,1945,,,-1,-1,,,,1
w10053729_jjm,vs82vatp7k,"Mediated JOLs",1,4,2023-03-10T06:19:06+00:00,1.6430251598358,3,versionB_stim.csv,ReadVersion.csv,Read,Read2,OCTOBER,SPOOKY,BUFFER3,Buffer,5,4,Study,User,-,,Study/JOL,BUFFER,1448,,,-1,-1,,,,1
w10053729_jjm,vs82vatp7k,"Mediated JOLs",1,5,2023-03-10T06:19:08+00:00,1.5796539783478,3,versionB_stim.csv,ReadVersion.csv,Read,Read2,DAYS,WEAKS,BUFFER3,Buffer,1,5,Study,User,-,,Study/JOL,BUFFER,1390,,,-1,-1,,,,1
w10053729_jjm,vs82vatp7k,"Mediated JOLs",1,6,2023-03-10T06:19:10+00:00,1.7776229381561,3,versionB_stim.csv,ReadVersion.csv,Read,Read2,TOOL,SHED,BUFFER3,Buffer,3,3,Study,User,-,,Study/JOL,BUFFER,1580,,,-1,-1,,,,1
w10053729_jjm,vs82vatp7k,"Mediated JOLs",1,7,2023-03-10T06:19:11+00:00,1.5795760154724,3,versionB_stim.csv,ReadVersion.csv,Read,Read2,SPRING,MARCH,BUFFER3,Buffer,4,6,Study,User,-,,Study/JOL,BUFFER,1380,,,-1,-1,,,,1
w10053729_jjm,vs82vatp7k,"Mediated JOLs",1,8,2023-03-10T06:19:13+00:00,1.3667950630188,3,versionB_stim.csv,ReadVersion.csv,Read,Read2,CHILL,COLD,Study2,F,32,47,Study,User,-,,Study/JOL,"Study Phase",1159,,,-1,-1,,,,1
w10053729_jjm,vs82vatp7k,"Mediated JOLs",1,9,2023-03-10T06:19:14+00:00,1.0559649467468,3,versionB_stim.csv,ReadVersion.csv,Read,Read2,BRIDGE,WATER,Study2,F,35,19,Study,User,-,,Study/JOL,"Study Phase",863,,,-1,-1,,,,1
w10053729_jjm,vs82vatp7k,"Mediated JOLs",1,10,2023-03-10T06:19:15+00:00,1.1996998786926,3,versionB_stim.csv,ReadVersion.csv,Read,Read2,PUSH,CLUTTER,Study2,U,41,18,Study,User,-,,Study/JOL,"Study Phase",1004,,,-1,-1,,,,1
w10053729_jjm,vs82vatp7k,"Mediated JOLs",1,11,2023-03-10T06:19:16+00:00,1.170184135437,3,versionB_stim.csv,ReadVersion.csv,Read,Read2,ARTERY,BRONZE,Study2,U,48,48,Study,User,-,,Study/JOL,"Study Phase",968,,,-1,-1,,,,1
w10053729_jjm,vs82vatp7k,"Mediated JOLs",1,12,2023-03-10T06:19:18+00:00,1.4307270050049,3,versionB_stim.csv,ReadVersion.csv,Read,Read2,NURSE,LAWYER,Study2,M,11,39,Study,User,-,,Study/JOL,"Study Phase",1232,,,-1,-1,,,,1
w10053729_jjm,vs82vatp7k,"Mediated JOLs",1,13,2023-03-10T06:19:19+00:00,1.399139881134,3,versionB_stim.csv,ReadVersion.csv,Read,Read2,DEATH,BUSINESS,Study2,U,44,16,Study,User,-,,Study/JOL,"Study Phase",1185,,,-1,-1,,,,1
w10053729_jjm,vs82vatp7k,"Mediated JOLs",1,14,2023-03-10T06:19:20+00:00,1.4317829608917,3,versionB_stim.csv,ReadVersion.csv,Read,Read2,STRONG,ACCIDENT,Study2,U,39,40,Study,User,-,,Study/JOL,"Study Phase",1219,,,-1,-1,,,,1
w10053729_jjm,vs82vatp7k,"Mediated JOLs",1,15,2023-03-10T06:19:25+00:00,4.6325581073761,3,versionB_stim.csv,ReadVersion.csv,Read,Read2,HAPPY,CAR,Study2,U,37,45,Study,User,-,,Study/JOL,"Study Phase",4373,,,-1,-1,,,,1
w10053729_jjm,vs82vatp7k,"Mediated JOLs",1,16,2023-03-10T06:19:26+00:00,1.2639830112457,3,versionB_stim.csv,ReadVersion.csv,Read,Read2,DOCUMENT,PAPER,Study2,F,27,49,Study,User,-,,Study/JOL,"Study Phase",1029,,,-1,-1,,,,1
w10053729_jjm,vs82vatp7k,"Mediated JOLs",1,17,2023-03-10T06:19:27+00:00,1.1476049423218,3,versionB_stim.csv,ReadVersion.csv,Read,Read2,CACTUS,PLANT,Study2,F,21,42,Study,User,-,,Study/JOL,"Study Phase",935,,,-1,-1,,,,1
w10053729_jjm,vs82vatp7k,"Mediated JOLs",1,18,2023-03-10T06:19:28+00:00,1.022586107254,3,versionB_stim.csv,ReadVersion.csv,Read,Read2,RAZOR,MUSCLE,Study2,M,20,37,Study,User,-,,Study/JOL,"Study Phase",819,,,-1,-1,,,,1
w10053729_jjm,vs82vatp7k,"Mediated JOLs",1,19,2023-03-10T06:19:29+00:00,0.9724428653717,3,versionB_stim.csv,ReadVersion.csv,Read,Read2,PANTS,COLLAR,Study2,M,8,24,Study,User,-,,Study/JOL,"Study Phase",760,,,-1,-1,,,,1
w10053729_jjm,vs82vatp7k,"Mediated JOLs",1,20,2023-03-10T06:19:30+00:00,1.0650169849396,3,versionB_stim.csv,ReadVersion.csv,Read,Read2,BOTH,OUNCE,Study2,U,47,7,Study,User,-,,Study/JOL,"Study Phase",855,,,-1,-1,,,,1
w10053729_jjm,vs82vatp7k,"Mediated JOLs",1,21,2023-03-10T06:19:32+00:00,1.2670052051544,3,versionB_stim.csv,ReadVersion.csv,Read,Read2,WINDOW,KNOB,Study2,M,19,41,Study,User,-,,Study/JOL,"Study Phase",1061,,,-1,-1,,,,1
w10053729_jjm,vs82vatp7k,"Mediated JOLs",1,22,2023-03-10T06:19:33+00:00,0.97740292549133,3,versionB_stim.csv,ReadVersion.csv,Read,Read2,TRAP,CAVE,Study2,M,15,25,Study,User,-,,Study/JOL,"Study Phase",776,,,-1,-1,,,,1
w10053729_jjm,vs82vatp7k,"Mediated JOLs",1,23,2023-03-10T06:19:33+00:00,0.80014586448669,3,versionB_stim.csv,ReadVersion.csv,Read,Read2,SCHOOL,STOP,Study2,M,7,13,Study,User,-,,Study/JOL,"Study Phase",581,,,-1,-1,,,,1
w10053729_jjm,vs82vatp7k,"Mediated JOLs",1,24,2023-03-10T06:19:34+00:00,0.98611903190613,3,versionB_stim.csv,ReadVersion.csv,Read,Read2,DIETARY,SACK,Study2,U,42,9,Study,User,-,,Study/JOL,"Study Phase",795,,,-1,-1,,,,1
w10053729_jjm,vs82vatp7k,"Mediated JOLs",1,25,2023-03-10T06:20:10+00:00,35.69727396965,3,versionB_stim.csv,ReadVersion.csv,Read,Read2,REALITY,ISLAND,Study2,M,9,32,Study,User,-,,Study/JOL,"Study Phase",35290,,,-1,-1,,,,1
w10053729_jjm,vs82vatp7k,"Mediated JOLs",1,26,2023-03-10T06:20:11+00:00,1.1659500598907,3,versionB_stim.csv,ReadVersion.csv,Read,Read2,SUMMER,SNOW,Study2,M,6,8,Study,User,-,,Study/JOL,"Study Phase",893,,,-1,-1,,,,1
w10053729_jjm,vs82vatp7k,"Mediated JOLs",1,27,2023-03-10T06:20:12+00:00,1.1161780357361,3,versionB_stim.csv,ReadVersion.csv,Read,Read2,GRILL,THIGH,Study2,M,17,15,Study,User,-,,Study/JOL,"Study Phase",904,,,-1,-1,,,,1
w10053729_jjm,vs82vatp7k,"Mediated JOLs",1,28,2023-03-10T06:20:13+00:00,1.0385189056396,3,versionB_stim.csv,ReadVersion.csv,Read,Read2,CHERRY,RED,Study2,F,25,21,Study,User,-,,Study/JOL,"Study Phase",843,,,-1,-1,,,,1
w10053729_jjm,vs82vatp7k,"Mediated JOLs",1,29,2023-03-10T06:20:14+00:00,1.0019941329956,3,versionB_stim.csv,ReadVersion.csv,Read,Read2,BLAZE,FIRE,Study2,F,26,22,Study,User,-,,Study/JOL,"Study Phase",797,,,-1,-1,,,,1
w10053729_jjm,vs82vatp7k,"Mediated JOLs",1,30,2023-03-10T06:20:15+00:00,0.95771288871765,3,versionB_stim.csv,ReadVersion.csv,Read,Read2,HORNET,STING,Study2,F,30,10,Study,User,-,,Study/JOL,"Study Phase",765,,,-1,-1,,,,1
w10053729_jjm,vs82vatp7k,"Mediated JOLs",1,31,2023-03-10T06:20:16+00:00,1.0128209590912,3,versionB_stim.csv,ReadVersion.csv,Read,Read2,CHISEL,HAMMER,Study2,F,23,29,Study,User,-,,Study/JOL,"Study Phase",829,,,-1,-1,,,,1
w10053729_jjm,vs82vatp7k,"Mediated JOLs",1,32,2023-03-10T06:20:19+00:00,2.09161901474,3,versionB_stim.csv,ReadVersion.csv,Read,Read2,ART,WOLF,Study2,U,38,20,Study,User,-,,Study/JOL,"Study Phase",1879,,,-1,-1,,,,1
w10053729_jjm,vs82vatp7k,"Mediated JOLs",1,33,2023-03-10T06:20:20+00:00,1.2628471851349,3,versionB_stim.csv,ReadVersion.csv,Read,Read2,SOAP,DRINK,Study2,M,12,50,Study,User,-,,Study/JOL,"Study Phase",1048,,,-1,-1,,,,1
w10053729_jjm,vs82vatp7k,"Mediated JOLs",1,34,2023-03-10T06:26:08+00:00,347.78860783577,3,versionB_stim.csv,ReadVersion.csv,Read,Read2,SICK,HIDE,Study2,U,45,11,Study,User,-,,Study/JOL,"Study Phase",347542,,,-1,-1,,,,0.825
w10053729_jjm,vs82vatp7k,"Mediated JOLs",1,35,2023-03-10T06:26:09+00:00,1.084361076355,3,versionB_stim.csv,ReadVersion.csv,Read,Read2,MIRROR,CHILDREN,Study2,U,49,14,Study,User,-,,Study/JOL,"Study Phase",863,,,-1,-1,,,,1
w10053729_jjm,vs82vatp7k,"Mediated JOLs",1,36,2023-03-10T06:26:10+00:00,1.358717918396,3,versionB_stim.csv,ReadVersion.csv,Read,Read2,CASH,LEG,Study2,U,50,17,Study,User,-,,Study/JOL,"Study Phase",1144,,,-1,-1,,,,1
w10053729_jjm,vs82vatp7k,"Mediated JOLs",1,37,2023-03-10T06:26:11+00:00,1.0870950222015,3,versionB_stim.csv,ReadVersion.csv,Read,Read2,RAKE,SEED,Study2,M,14,28,Study,User,-,,Study/JOL,"Study Phase",881,,,-1,-1,,,,1
w10053729_jjm,vs82vatp7k,"Mediated JOLs",1,38,2023-03-10T06:26:12+00:00,1.0669710636139,3,versionB_stim.csv,ReadVersion.csv,Read,Read2,HEAVY,FEATHER,Study2,M,13,27,Study,User,-,,Study/JOL,"Study Phase",849,,,-1,-1,,,,1
w10053729_jjm,vs82vatp7k,"Mediated JOLs",1,39,2023-03-10T06:26:13+00:00,1.0537099838257,3,versionB_stim.csv,ReadVersion.csv,Read,Read2,EYES,SMELL,Study2,M,10,46,Study,User,-,,Study/JOL,"Study Phase",843,,,-1,-1,,,,1
w10053729_jjm,vs82vatp7k,"Mediated JOLs",1,40,2023-03-10T06:26:14+00:00,0.97823596000671,3,versionB_stim.csv,ReadVersion.csv,Read,Read2,ATTIRE,CLOTHES,Study2,F,24,30,Study,User,-,,Study/JOL,"Study Phase",785,,,-1,-1,,,,1
w10053729_jjm,vs82vatp7k,"Mediated JOLs",1,41,2023-03-10T06:26:15+00:00,0.99324893951416,3,versionB_stim.csv,ReadVersion.csv,Read,Read2,VALLEY,PEAK,Study2,M,18,36,Study,User,-,,Study/JOL,"Study Phase",799,,,-1,-1,,,,1
w10053729_jjm,vs82vatp7k,"Mediated JOLs",1,42,2023-03-10T06:26:17+00:00,2.165666103363,3,versionB_stim.csv,ReadVersion.csv,Read,Read2,CHOP,CUT,Study2,F,22,26,Study,User,-,,Study/JOL,"Study Phase",1974,,,-1,-1,,,,1
w10053729_jjm,vs82vatp7k,"Mediated JOLs",1,43,2023-03-10T06:28:28+00:00,130.140583992,3,versionB_stim.csv,ReadVersion.csv,Read,Read2,OVEN,BASKET,Study2,M,16,38,Study,User,-,,Study/JOL,"Study Phase",129900,,,-1,-1,,,,0.947
w10053729_jjm,vs82vatp7k,"Mediated JOLs",1,44,2023-03-10T06:28:38+00:00,10.330091953278,3,versionB_stim.csv,ReadVersion.csv,Read,Read2,BENCH,HORN,Study2,U,43,12,Study,User,-,,Study/JOL,"Study Phase",10052,,,-1,-1,,,,1
w10053729_jjm,vs82vatp7k,"Mediated JOLs",1,45,2023-03-10T06:28:39+00:00,1.2740271091461,3,versionB_stim.csv,ReadVersion.csv,Read,Read2,LEAGUE,BASEBALL,Study2,F,29,33,Study,User,-,,Study/JOL,"Study Phase",1048,,,-1,-1,,,,1
w10053729_jjm,vs82vatp7k,"Mediated JOLs",1,46,2023-03-10T06:28:42+00:00,3.0441110134125,3,versionB_stim.csv,ReadVersion.csv,Read,Read2,HERD,COW,Study2,F,33,34,Study,User,-,,Study/JOL,"Study Phase",2840,,,-1,-1,,,,1
w10053729_jjm,vs82vatp7k,"Mediated JOLs",1,47,2023-03-10T06:28:45+00:00,3.0179259777069,3,versionB_stim.csv,ReadVersion.csv,Read,Read2,KING,VASE,Study2,U,36,51,Study,User,-,,Study/JOL,"Study Phase",2828,,,-1,-1,,,,1
w10053729_jjm,vs82vatp7k,"Mediated JOLs",1,48,2023-03-10T06:28:47+00:00,2.0848939418793,3,versionB_stim.csv,ReadVersion.csv,Read,Read2,WASP,BUG,Study2,F,34,43,Study,User,-,,Study/JOL,"Study Phase",1884,,,-1,-1,,,,1
w10053729_jjm,vs82vatp7k,"Mediated JOLs",1,49,2023-03-10T06:28:49+00:00,1.9813561439514,3,versionB_stim.csv,ReadVersion.csv,Read,Read2,INCENSE,SMELL,Study2,F,28,44,Study,User,-,,Study/JOL,"Study Phase",1777,,,-1,-1,,,,0.444
w10053729_jjm,vs82vatp7k,"Mediated JOLs",1,50,2023-03-10T06:28:50+00:00,1.07572889328,3,versionB_stim.csv,ReadVersion.csv,Read,Read2,SUGAR,RIDDLE,Study2,U,40,31,Study,User,-,,Study/JOL,"Study Phase",868,,,-1,-1,,,,1
w10053729_jjm,vs82vatp7k,"Mediated JOLs",1,51,2023-03-10T06:28:51+00:00,1.0199539661407,3,versionB_stim.csv,ReadVersion.csv,Read,Read2,FEUD,FIGHT,Study2,F,31,23,Study,User,-,,Study/JOL,"Study Phase",810,,,-1,-1,,,,1
w10053729_jjm,vs82vatp7k,"Mediated JOLs",1,52,2023-03-10T06:28:53+00:00,1.1832339763641,3,versionB_stim.csv,ReadVersion.csv,Read,Read2,LEASE,TOIL,Study2,U,46,35,Study,User,-,,Study/JOL,"Study Phase",988,,,-1,-1,,,,1
w10053729_jjm,vs82vatp7k,"Mediated JOLs",1,53,2023-03-10T06:28:58+00:00,5.6036109924316,3,versionB_stim.csv,ReadVersion.csv,Read,Read2,THING,STUFF,BUFFER2,Buffer,110,108,Study,User,-,,Study/JOL,BUFFER2,5353,,,-1,-1,,,,1
w10053729_jjm,vs82vatp7k,"Mediated JOLs",1,54,2023-03-10T06:28:59+00:00,1.254802942276,3,versionB_stim.csv,ReadVersion.csv,Read,Read2,ICE,FROZEN,BUFFER4,Buffer,54,53,Study,User,-,,Study/JOL,BUFFER2,1021,,,-1,-1,,,,1
w10053729_jjm,vs82vatp7k,"Mediated JOLs",1,55,2023-03-10T06:29:00+00:00,1.0456280708313,3,versionB_stim.csv,ReadVersion.csv,Read,Read2,NOODLE,STRING,BUFFER4,Buffer,52,52,Study,User,-,,Study/JOL,BUFFER2,836,,,-1,-1,,,,1
w10053729_jjm,vs82vatp7k,"Mediated JOLs",1,56,2023-03-10T06:29:02+00:00,1.6784589290619,3,versionB_stim.csv,ReadVersion.csv,Read,Read2,TREES,GREEN,BUFFER1,Buffer,56,60,Study,User,-,,Study/JOL,BUFFER2,1463,,,-1,-1,,,,1
w10053729_jjm,vs82vatp7k,"Mediated JOLs",1,57,2023-03-10T06:29:03+00:00,1.1831321716309,3,versionB_stim.csv,ReadVersion.csv,Read,Read2,SHERRIF,POLICE,BUFFER2,Buffer,107,111,Study,User,-,,Study/JOL,BUFFER2,989,,,-1,-1,,,,1
w10053729_jjm,vs82vatp7k,"Mediated JOLs",1,58,2023-03-10T06:29:05+00:00,1.7522759437561,3,versionB_stim.csv,ReadVersion.csv,Read,Read2,,,,,,0,Instruct,User,-,"You have completed this section. Please press Enter.",Filler_Instruction,Instruct2,1556,,,-1,-1,,,,1
w10053729_jjm,vs82vatp7k,"Mediated JOLs",1,59,2023-03-10T06:35:05+00:00,359.7032558918,3,versionB_stim.csv,ReadVersion.csv,Read,Read2,,,,,,0,FreeRecall,120,120,"Please list the 50 US states in alphabetical order. The task will automatically advance to the next screen after two minutes.",,Filler1,359305,"Alaska Alabama Connecticut Colorado Utah Mississippi New Orleans North carolina South carolina ",0,3321,66172,0,0,,0.98
w10053729_jjm,vs82vatp7k,"Mediated JOLs",1,60,2023-03-10T06:35:16+00:00,11.497721195221,3,versionB_stim.csv,ReadVersion.csv,Read,Read2,,,,,,0,Instruct,-,10,"You will now be presented with the first word from each of the previously studied item pairs. Please type the missing word. If you do not know the word, you may guess or press Enter to skip forward to the next pair.",,Instruct3,11253,,,-1,-1,,,,1
w10053729_jjm,vs82vatp7k,"Mediated JOLs",1,61,2023-03-10T06:35:24+00:00,8.2161037921906,3,versionB_stim.csv,ReadVersion.csv,Read,Read2,WINDOW,KNOB,Study2,M,19,41,Test,User,-,,Recall,Recall1,7896," GLASS",0,3847,6959,0,0,,1
w10053729_jjm,vs82vatp7k,"Mediated JOLs",1,62,2023-03-10T06:35:30+00:00,5.0774919986725,3,versionB_stim.csv,ReadVersion.csv,Read,Read2,VALLEY,PEAK,Study2,M,18,36,Test,User,-,,Recall,Recall1,4798," PEAK",100,2620,3826,1,1,,1
w10053729_jjm,vs82vatp7k,"Mediated JOLs",1,63,2023-03-10T06:35:37+00:00,7.3630130290985,3,versionB_stim.csv,ReadVersion.csv,Read,Read2,NURSE,LAWYER,Study2,M,11,39,Test,User,-,,Recall,Recall1,7069,DENTIST,15.384615384615,4906,6021,0,0,,1
w10053729_jjm,vs82vatp7k,"Mediated JOLs",1,64,2023-03-10T06:35:47+00:00,10.021469116211,3,versionB_stim.csv,ReadVersion.csv,Read,Read2,TRAP,CAVE,Study2,M,15,25,Test,User,-,,Recall,Recall1,9727,CLAW,50,4084,8662,0,0,,1
w10053729_jjm,vs82vatp7k,"Mediated JOLs",1,65,2023-03-10T06:35:53+00:00,6.4610638618469,3,versionB_stim.csv,ReadVersion.csv,Read,Read2,SCHOOL,STOP,Study2,M,7,13,Test,User,-,,Recall,Recall1,6182,NOTEBOOK,16.666666666667,3491,5137,0,0,,1
w10053729_jjm,vs82vatp7k,"Mediated JOLs",1,66,2023-03-10T06:36:01+00:00,7.4426801204681,3,versionB_stim.csv,ReadVersion.csv,Read,Read2,DIETARY,SACK,Study2,U,42,9,Test,User,-,,Recall,Recall1,7156,NURSERY,18.181818181818,2546,4204,0,0,,1
w10053729_jjm,vs82vatp7k,"Mediated JOLs",1,67,2023-03-10T06:36:05+00:00,4.5815689563751,3,versionB_stim.csv,ReadVersion.csv,Read,Read2,FEUD,FIGHT,Study2,F,31,23,Test,User,-,,Recall,Recall1,4284,FIGHT,100,2422,3042,1,1,,1
w10053729_jjm,vs82vatp7k,"Mediated JOLs",1,68,2023-03-10T06:36:11+00:00,5.483186006546,3,versionB_stim.csv,ReadVersion.csv,Read,Read2,ATTIRE,CLOTHES,Study2,F,24,30,Test,User,-,,Recall,Recall1,5181,CLOTHES,100,3224,4154,1,1,,1
w10053729_jjm,vs82vatp7k,"Mediated JOLs",1,69,2023-03-10T06:38:03+00:00,111.85408401489,3,versionB_stim.csv,ReadVersion.csv,Read,Read2,ARTERY,BRONZE,Study2,U,48,48,Test,User,-,,Recall,Recall1,111021,BLOOD,36.363636363636,107399,109794,0,0,,1
w10053729_jjm,vs82vatp7k,"Mediated JOLs",1,70,2023-03-10T06:38:07+00:00,4.2845571041107,3,versionB_stim.csv,ReadVersion.csv,Read,Read2,CHILL,COLD,Study2,F,32,47,Test,User,-,,Recall,Recall1,3951,COLD,100,2386,3020,1,1,,1
w10053729_jjm,vs82vatp7k,"Mediated JOLs",1,71,2023-03-10T06:38:12+00:00,4.6053349971771,3,versionB_stim.csv,ReadVersion.csv,Read,Read2,DOCUMENT,PAPER,Study2,F,27,49,Test,User,-,,Recall,Recall1,4287,PAPER,100,2063,3427,1,1,,1
w10053729_jjm,vs82vatp7k,"Mediated JOLs",1,72,2023-03-10T06:38:21+00:00,9.497368812561,3,versionB_stim.csv,ReadVersion.csv,Read,Read2,STRONG,ACCIDENT,Study2,U,39,40,Test,User,-,,Recall,Recall1,9214,LIFT,33.333333333333,7468,8235,0,0,,1
w10053729_jjm,vs82vatp7k,"Mediated JOLs",1,73,2023-03-10T06:38:26+00:00,4.870087146759,3,versionB_stim.csv,ReadVersion.csv,Read,Read2,SUMMER,SNOW,Study2,M,6,8,Test,User,-,,Recall,Recall1,4586,HEAT,0,1984,3589,0,0,,1
w10053729_jjm,vs82vatp7k,"Mediated JOLs",1,74,2023-03-10T06:38:31+00:00,5.0839569568634,3,versionB_stim.csv,ReadVersion.csv,Read,Read2,BLAZE,FIRE,Study2,F,26,22,Test,User,-,,Recall,Recall1,4797,FIRE,100,1937,3813,1,1,,1
w10053729_jjm,vs82vatp7k,"Mediated JOLs",1,75,2023-03-10T06:39:47+00:00,76.337516069412,3,versionB_stim.csv,ReadVersion.csv,Read,Read2,SICK,HIDE,Study2,U,45,11,Test,User,-,,Recall,Recall1,76073,HURT,25,2661,72727,0,0,,1
w10053729_jjm,vs82vatp7k,"Mediated JOLs",1,76,2023-03-10T06:39:53+00:00,5.463399887085,3,versionB_stim.csv,ReadVersion.csv,Read,Read2,KING,VASE,Study2,U,36,51,Test,User,-,,Recall,Recall1,5151,CROWN,0,2068,4026,0,0,,1
w10053729_jjm,vs82vatp7k,"Mediated JOLs",1,77,2023-03-10T06:40:00+00:00,7.1203560829163,3,versionB_stim.csv,ReadVersion.csv,Read,Read2,PUSH,CLUTTER,Study2,U,41,18,Test,User,-,,Recall,Recall1,6826,PULL,18.181818181818,2591,5856,0,0,,1
w10053729_jjm,vs82vatp7k,"Mediated JOLs",1,78,2023-03-10T06:40:09+00:00,9.1345980167389,3,versionB_stim.csv,ReadVersion.csv,Read,Read2,RAKE,SEED,Study2,M,14,28,Test,User,-,,Recall,Recall1,8833,LEAF,25,4935,7078,0,0,,1
w10053729_jjm,vs82vatp7k,"Mediated JOLs",1,79,2023-03-10T06:40:15+00:00,6.2359080314636,3,versionB_stim.csv,ReadVersion.csv,Read,Read2,SUGAR,RIDDLE,Study2,U,40,31,Test,User,-,,Recall,Recall1,5921,SPICE,36.363636363636,4219,5012,0,0,,1
w10053729_jjm,vs82vatp7k,"Mediated JOLs",1,80,2023-03-10T06:40:25+00:00,9.8365249633789,3,versionB_stim.csv,ReadVersion.csv,Read,Read2,LEAGUE,BASEBALL,Study2,F,29,33,Test,User,-,,Recall,Recall1,9540,BASEBALL,100,2853,8105,1,1,,1
w10053729_jjm,vs82vatp7k,"Mediated JOLs",1,81,2023-03-10T06:40:31+00:00,5.9681668281555,3,versionB_stim.csv,ReadVersion.csv,Read,Read2,GRILL,THIGH,Study2,M,17,15,Test,User,-,,Recall,Recall1,5684,FIRE,22.222222222222,4149,4707,0,0,,1
w10053729_jjm,vs82vatp7k,"Mediated JOLs",1,82,2023-03-10T06:40:35+00:00,3.7656052112579,3,versionB_stim.csv,ReadVersion.csv,Read,Read2,CHOP,CUT,Study2,F,22,26,Test,User,-,,Recall,Recall1,3531,CUT,100,2095,2423,1,1,,1
w10053729_jjm,vs82vatp7k,"Mediated JOLs",1,83,2023-03-10T06:41:37+00:00,62.029721975327,3,versionB_stim.csv,ReadVersion.csv,Read,Read2,RAZOR,MUSCLE,Study2,M,20,37,Test,User,-,,Recall,Recall1,61190,SLICE,54.545454545455,54938,57079,0,0,,0.833
w10053729_jjm,vs82vatp7k,"Mediated JOLs",1,84,2023-03-10T06:41:46+00:00,9.3211379051208,3,versionB_stim.csv,ReadVersion.csv,Read,Read2,SOAP,DRINK,Study2,M,12,50,Test,User,-,,Recall,Recall1,8821,BUBBLE,0,5022,7869,0,0,,1
w10053729_jjm,vs82vatp7k,"Mediated JOLs",1,85,2023-03-10T06:41:51+00:00,5.0947189331055,3,versionB_stim.csv,ReadVersion.csv,Read,Read2,LEASE,TOIL,Study2,U,46,35,Test,User,-,,Recall,Recall1,4807,RENT,25,3303,3899,0,0,,1
w10053729_jjm,vs82vatp7k,"Mediated JOLs",1,86,2023-03-10T06:41:56+00:00,4.7302050590515,3,versionB_stim.csv,ReadVersion.csv,Read,Read2,WASP,BUG,Study2,F,34,43,Test,User,-,,Recall,Recall1,4435,STING,25,2359,3510,0,0,,1
w10053729_jjm,vs82vatp7k,"Mediated JOLs",1,87,2023-03-10T06:42:02+00:00,5.9244680404663,3,versionB_stim.csv,ReadVersion.csv,Read,Read2,CHISEL,HAMMER,Study2,F,23,29,Test,User,-,,Recall,Recall1,5612,CHIP,20,3042,4549,0,0,,1
w10053729_jjm,vs82vatp7k,"Mediated JOLs",1,88,2023-03-10T06:42:13+00:00,10.68287396431,3,versionB_stim.csv,ReadVersion.csv,Read,Read2,CASH,LEG,Study2,U,50,17,Test,User,-,,Recall,Recall1,10372,BANK,0,5511,9264,0,0,,1
w10053729_jjm,vs82vatp7k,"Mediated JOLs",1,89,2023-03-10T06:42:18+00:00,5.107696056366,3,versionB_stim.csv,ReadVersion.csv,Read,Read2,HORNET,STING,Study2,F,30,10,Test,User,-,,Recall,Recall1,4804,STING,100,3025,3766,1,1,,1
w10053729_jjm,vs82vatp7k,"Mediated JOLs",1,90,2023-03-10T06:42:30+00:00,12.397003889084,3,versionB_stim.csv,ReadVersion.csv,Read,Read2,BOTH,OUNCE,Study2,U,47,7,Test,User,-,,Recall,Recall1,12104,TWO,25,10693,10987,0,0,,1
w10053729_jjm,vs82vatp7k,"Mediated JOLs",1,91,2023-03-10T06:43:39+00:00,68.347556114197,3,versionB_stim.csv,ReadVersion.csv,Read,Read2,HAPPY,CAR,Study2,U,37,45,Test,User,-,,Recall,Recall1,67511,SMILE,0,66025,66588,0,0,,1
w10053729_jjm,vs82vatp7k,"Mediated JOLs",1,92,2023-03-10T06:43:49+00:00,10.212270021439,3,versionB_stim.csv,ReadVersion.csv,Read,Read2,DEATH,BUSINESS,Study2,U,44,16,Test,User,-,,Recall,Recall1,9820,LIVE,33.333333333333,5539,8240,0,0,,1
w10053729_jjm,vs82vatp7k,"Mediated JOLs",1,93,2023-03-10T06:43:53+00:00,3.7800559997559,3,versionB_stim.csv,ReadVersion.csv,Read,Read2,CHERRY,RED,Study2,F,25,21,Test,User,-,,Recall,Recall1,3535,TOP,0,2294,2540,0,0,,1
w10053729_jjm,vs82vatp7k,"Mediated JOLs",1,94,2023-03-10T06:43:56+00:00,3.8009879589081,3,versionB_stim.csv,ReadVersion.csv,Read,Read2,EYES,SMELL,Study2,M,10,46,Test,User,-,,Recall,Recall1,3563,MOUTH,20,1995,2624,0,0,,1
w10053729_jjm,vs82vatp7k,"Mediated JOLs",1,95,2023-03-10T06:44:00+00:00,4.0817348957062,3,versionB_stim.csv,ReadVersion.csv,Read,Read2,ART,WOLF,Study2,U,38,20,Test,User,-,,Recall,Recall1,3860,PAINT,0,2302,3017,0,0,,1
w10053729_jjm,vs82vatp7k,"Mediated JOLs",1,96,2023-03-10T06:46:21+00:00,140.94160914421,3,versionB_stim.csv,ReadVersion.csv,Read,Read2,MIRROR,CHILDREN,Study2,U,49,14,Test,User,-,,Recall,Recall1,140152,EYES,16.666666666667,9974,138418,0,0,,1
w10053729_jjm,vs82vatp7k,"Mediated JOLs",1,97,2023-03-10T06:46:28+00:00,6.6788809299469,3,versionB_stim.csv,ReadVersion.csv,Read,Read2,HERD,COW,Study2,F,33,34,Test,User,-,,Recall,Recall1,6302,PRIDE,0,3602,5371,0,0,,1
w10053729_jjm,vs82vatp7k,"Mediated JOLs",1,98,2023-03-10T06:46:34+00:00,6.3908729553223,3,versionB_stim.csv,ReadVersion.csv,Read,Read2,HEAVY,FEATHER,Study2,M,13,27,Test,User,-,,Recall,Recall1,6101,LIGHT,16.666666666667,4473,5125,0,0,,1
w10053729_jjm,vs82vatp7k,"Mediated JOLs",1,99,2023-03-10T06:46:39+00:00,4.6049311161041,3,versionB_stim.csv,ReadVersion.csv,Read,Read2,BENCH,HORN,Study2,U,43,12,Test,User,-,,Recall,Recall1,4309,SIT,0,2940,3328,0,0,,1
w10053729_jjm,vs82vatp7k,"Mediated JOLs",1,100,2023-03-10T06:46:45+00:00,6.1093769073486,3,versionB_stim.csv,ReadVersion.csv,Read,Read2,CACTUS,PLANT,Study2,F,21,42,Test,User,-,,Recall,Recall1,5814,PLANT,100,3825,4770,1,1,,1
w10053729_jjm,vs82vatp7k,"Mediated JOLs",1,101,2023-03-10T06:47:27+00:00,41.492439031601,3,versionB_stim.csv,ReadVersion.csv,Read,Read2,OVEN,BASKET,Study2,M,16,38,Test,User,-,,Recall,Recall1,40662,BAKE,80,39289,39713,0,1,,1
w10053729_jjm,vs82vatp7k,"Mediated JOLs",1,102,2023-03-10T06:47:56+00:00,29.409358978271,3,versionB_stim.csv,ReadVersion.csv,Read,Read2,REALITY,ISLAND,Study2,M,9,32,Test,User,-,,Recall,Recall1,29068,FICTION,30.769230769231,27245,28123,0,0,,1
w10053729_jjm,vs82vatp7k,"Mediated JOLs",1,103,2023-03-10T06:48:09+00:00,12.674727916718,3,versionB_stim.csv,ReadVersion.csv,Read,Read2,INCENSE,SMELL,Study2,F,28,44,Test,User,-,,Recall,Recall1,12376,LIGHT,20,4739,5420,0,0,,1
w10053729_jjm,vs82vatp7k,"Mediated JOLs",1,104,2023-03-10T06:48:21+00:00,12.067071199417,3,versionB_stim.csv,ReadVersion.csv,Read,Read2,BRIDGE,WATER,Study2,F,35,19,Test,User,-,,Recall,Recall1,11766,TOWER,60,9974,10782,0,0,,1
w10053729_jjm,vs82vatp7k,"Mediated JOLs",1,105,2023-03-10T06:48:25+00:00,4.2840838432312,3,versionB_stim.csv,ReadVersion.csv,Read,Read2,PANTS,COLLAR,Study2,M,8,24,Test,User,-,,Recall,Recall1,3988,COLLAR,100,2313,3112,1,1,,1
w10053729_jjm,vs82vatp7k,"Mediated JOLs",1,106,2023-03-10T06:49:02+00:00,36.446565151215,3,versionB_stim.csv,ReadVersion.csv,Read,Read2,,,,,,0,Instruct,-,10,"You will now be presented with a new set of word pairs. Please study each pair. Remember that your memory will be tested! When finished, press Enter to move to the next pair.",Initial_Instruct,Instruct4,35658,,,-1,-1,,,,1
w10053729_jjm,vs82vatp7k,"Mediated JOLs",1,107,2023-03-10T06:49:05+00:00,3.4876139163971,3,versionB_stim.csv,ReadVersion.csv,Read,Read2,,,,,,0,Instruct,User,-,"Press Enter when you are readty to begin",,Instruct11,3183,,,-1,-1,,,,1
w10053729_jjm,vs82vatp7k,"Mediated JOLs",1,108,2023-03-10T06:49:10+00:00,4.8554050922394,3,versionB_stim.csv,ReadVersion.csv,Read,Read2,SPACE,JAM,BUFFER1,Buffer,60,59,Study,User,-,,Study/JOL,BUFFER2,4578,,,-1,-1,,,,1
w10053729_jjm,vs82vatp7k,"Mediated JOLs",1,109,2023-03-10T06:49:13+00:00,2.9644479751587,3,versionB_stim.csv,ReadVersion.csv,Read,Read2,MALT,CHOCOLATE,BUFFER2,Buffer,108,109,Study,User,-,,Study/JOL,BUFFER2,2729,,,-1,-1,,,,1
w10053729_jjm,vs82vatp7k,"Mediated JOLs",1,110,2023-03-10T06:49:14+00:00,1.281947851181,3,versionB_stim.csv,ReadVersion.csv,Read,Read2,SCARE,FRIGHT,BUFFER1,Buffer,59,57,Study,User,-,,Study/JOL,BUFFER2,1079,,,-1,-1,,,,1
w10053729_jjm,vs82vatp7k,"Mediated JOLs",1,111,2023-03-10T06:49:15+00:00,1.1287171840668,3,versionB_stim.csv,ReadVersion.csv,Read,Read2,GEESE,GOOSE,BUFFER2,Buffer,106,107,Study,User,-,,Study/JOL,BUFFER2,920,,,-1,-1,,,,1
w10053729_jjm,vs82vatp7k,"Mediated JOLs",1,112,2023-03-10T06:49:16+00:00,1.0065288543701,3,versionB_stim.csv,ReadVersion.csv,Read,Read2,SHRIMP,FISH,BUFFER4,Buffer,53,54,Study,User,-,,Study/JOL,BUFFER2,800,,,-1,-1,,,,1
w10053729_jjm,vs82vatp7k,"Mediated JOLs",1,113,2023-03-10T06:49:17+00:00,0.95948696136475,3,versionB_stim.csv,ReadVersion.csv,Read,Read2,CREDIT,CARD,Study1,F,88,86,Study,User,-,,Study/JOL,"Study Phase2",765,,,-1,-1,,,,1
w10053729_jjm,vs82vatp7k,"Mediated JOLs",1,114,2023-03-10T06:49:18+00:00,1.1007511615753,3,versionB_stim.csv,ReadVersion.csv,Read,Read2,NAP,SLEEP,Study1,F,84,73,Study,User,-,,Study/JOL,"Study Phase2",899,,,-1,-1,,,,1
w10053729_jjm,vs82vatp7k,"Mediated JOLs",1,115,2023-03-10T06:49:19+00:00,0.94949793815613,3,versionB_stim.csv,ReadVersion.csv,Read,Read2,STRETCH,CLOTH,Study1,U,92,102,Study,User,-,,Study/JOL,"Study Phase2",752,,,-1,-1,,,,1
w10053729_jjm,vs82vatp7k,"Mediated JOLs",1,116,2023-03-10T06:49:20+00:00,0.99142003059387,3,versionB_stim.csv,ReadVersion.csv,Read,Read2,HARD,COTTON,Study1,M,75,79,Study,User,-,,Study/JOL,"Study Phase2",789,,,-1,-1,,,,1
w10053729_jjm,vs82vatp7k,"Mediated JOLs",1,117,2023-03-10T06:49:21+00:00,1.0158839225769,3,versionB_stim.csv,ReadVersion.csv,Read,Read2,BEACH,BOX,Study1,M,62,62,Study,User,-,,Study/JOL,"Study Phase2",808,,,-1,-1,,,,1
w10053729_jjm,vs82vatp7k,"Mediated JOLs",1,118,2023-03-10T06:49:23+00:00,1.9922571182251,3,versionB_stim.csv,ReadVersion.csv,Read,Read2,BAT,BOUNCE,Study1,M,67,78,Study,User,-,,Study/JOL,"Study Phase2",1790,,,-1,-1,,,,1
w10053729_jjm,vs82vatp7k,"Mediated JOLs",1,119,2023-03-10T06:49:25+00:00,1.2600698471069,3,versionB_stim.csv,ReadVersion.csv,Read,Read2,HORSE,WHEEL,Study1,M,69,63,Study,User,-,,Study/JOL,"Study Phase2",1049,,,-1,-1,,,,1
w10053729_jjm,vs82vatp7k,"Mediated JOLs",1,120,2023-03-10T06:49:26+00:00,1.0200691223145,3,versionB_stim.csv,ReadVersion.csv,Read,Read2,WORD,SENTENCE,Study1,F,82,101,Study,User,-,,Study/JOL,"Study Phase2",823,,,-1,-1,,,,1
w10053729_jjm,vs82vatp7k,"Mediated JOLs",1,121,2023-03-10T06:49:27+00:00,0.90818905830383,3,versionB_stim.csv,ReadVersion.csv,Read,Read2,WAR,QUIET,Study1,M,63,87,Study,User,-,,Study/JOL,"Study Phase2",708,,,-1,-1,,,,1
w10053729_jjm,vs82vatp7k,"Mediated JOLs",1,122,2023-03-10T06:49:27+00:00,0.79874277114868,3,versionB_stim.csv,ReadVersion.csv,Read,Read2,WAGE,MONEY,Study1,F,77,91,Study,User,-,,Study/JOL,"Study Phase2",595,,,-1,-1,,,,1
w10053729_jjm,vs82vatp7k,"Mediated JOLs",1,123,2023-03-10T06:49:28+00:00,1.1862070560455,3,versionB_stim.csv,ReadVersion.csv,Read,Read2,SOON,BELT,Study1,U,101,95,Study,User,-,,Study/JOL,"Study Phase2",984,,,-1,-1,,,,1
w10053729_jjm,vs82vatp7k,"Mediated JOLs",1,124,2023-03-10T06:49:30+00:00,1.1388120651245,3,versionB_stim.csv,ReadVersion.csv,Read,Read2,LION,STRIPES,Study1,M,61,64,Study,User,-,,Study/JOL,"Study Phase2",942,,,-1,-1,,,,1
w10053729_jjm,vs82vatp7k,"Mediated JOLs",1,125,2023-03-10T06:49:31+00:00,1.1281180381775,3,versionB_stim.csv,ReadVersion.csv,Read,Read2,ROOT,PLANT,Study1,F,80,88,Study,User,-,,Study/JOL,"Study Phase2",927,,,-1,-1,,,,1
w10053729_jjm,vs82vatp7k,"Mediated JOLs",1,126,2023-03-10T06:50:26+00:00,55.230501890182,3,versionB_stim.csv,ReadVersion.csv,Read,Read2,HYGIENE,CLEAN,Study1,F,83,70,Study,User,-,,Study/JOL,"Study Phase2",54442,,,-1,-1,,,,0.707
w10053729_jjm,vs82vatp7k,"Mediated JOLs",1,127,2023-03-10T06:50:27+00:00,1.2235641479492,3,versionB_stim.csv,ReadVersion.csv,Read,Read2,CAKE,HAND,Study1,U,104,90,Study,User,-,,Study/JOL,"Study Phase2",927,,,-1,-1,,,,1
w10053729_jjm,vs82vatp7k,"Mediated JOLs",1,128,2023-03-10T06:50:28+00:00,0.98659086227417,3,versionB_stim.csv,ReadVersion.csv,Read,Read2,MULE,DONKEY,Study1,F,85,82,Study,User,-,,Study/JOL,"Study Phase2",770,,,-1,-1,,,,1
w10053729_jjm,vs82vatp7k,"Mediated JOLs",1,129,2023-03-10T06:50:29+00:00,0.75883102416992,3,versionB_stim.csv,ReadVersion.csv,Read,Read2,SWAN,BIRD,Study1,F,81,84,Study,User,-,,Study/JOL,"Study Phase2",557,,,-1,-1,,,,1
w10053729_jjm,vs82vatp7k,"Mediated JOLs",1,130,2023-03-10T06:50:30+00:00,0.85800099372864,3,versionB_stim.csv,ReadVersion.csv,Read,Read2,ORCHID,FLOWER,Study1,F,89,100,Study,User,-,,Study/JOL,"Study Phase2",659,,,-1,-1,,,,1
w10053729_jjm,vs82vatp7k,"Mediated JOLs",1,131,2023-03-10T06:50:31+00:00,0.74893712997437,3,versionB_stim.csv,ReadVersion.csv,Read,Read2,WEDDING,FINGER,Study1,M,72,69,Study,User,-,,Study/JOL,"Study Phase2",529,,,-1,-1,,,,1
w10053729_jjm,vs82vatp7k,"Mediated JOLs",1,132,2023-03-10T06:50:31+00:00,0.87094497680664,3,versionB_stim.csv,ReadVersion.csv,Read,Read2,SIGN,TICK,Study1,U,102,89,Study,User,-,,Study/JOL,"Study Phase2",662,,,-1,-1,,,,1
w10053729_jjm,vs82vatp7k,"Mediated JOLs",1,133,2023-03-10T06:50:32+00:00,0.77634501457214,3,versionB_stim.csv,ReadVersion.csv,Read,Read2,CEILING,CARPET,Study1,M,70,98,Study,User,-,,Study/JOL,"Study Phase2",571,,,-1,-1,,,,1
w10053729_jjm,vs82vatp7k,"Mediated JOLs",1,134,2023-03-10T06:50:33+00:00,0.70866799354553,3,versionB_stim.csv,ReadVersion.csv,Read,Read2,TUNA,FISH,Study1,F,90,76,Study,User,-,,Study/JOL,"Study Phase2",503,,,-1,-1,,,,1
w10053729_jjm,vs82vatp7k,"Mediated JOLs",1,135,2023-03-10T06:50:34+00:00,0.72948384284973,3,versionB_stim.csv,ReadVersion.csv,Read,Read2,SCALP,HEAD,Study1,F,78,99,Study,User,-,,Study/JOL,"Study Phase2",522,,,-1,-1,,,,1
w10053729_jjm,vs82vatp7k,"Mediated JOLs",1,136,2023-03-10T06:50:35+00:00,1.2539851665497,3,versionB_stim.csv,ReadVersion.csv,Read,Read2,ROUGH,SILK,Study1,M,65,103,Study,User,-,,Study/JOL,"Study Phase2",1045,,,-1,-1,,,,1
w10053729_jjm,vs82vatp7k,"Mediated JOLs",1,137,2023-03-10T06:50:36+00:00,1.2660319805145,3,versionB_stim.csv,ReadVersion.csv,Read,Read2,MAZE,PHONE,Study1,U,97,97,Study,User,-,,Study/JOL,"Study Phase2",1059,,,-1,-1,,,,1
w10053729_jjm,vs82vatp7k,"Mediated JOLs",1,138,2023-03-10T06:50:37+00:00,0.69446086883545,3,versionB_stim.csv,ReadVersion.csv,Read,Read2,SIP,DRINK,Study1,F,87,104,Study,User,-,,Study/JOL,"Study Phase2",481,,,-1,-1,,,,1
w10053729_jjm,vs82vatp7k,"Mediated JOLs",1,139,2023-03-10T06:50:38+00:00,1.3237700462341,3,versionB_stim.csv,ReadVersion.csv,Read,Read2,FUZZY,BANG,Study1,U,105,85,Study,User,-,,Study/JOL,"Study Phase2",1103,,,-1,-1,,,,1
w10053729_jjm,vs82vatp7k,"Mediated JOLs",1,140,2023-03-10T06:50:39+00:00,0.71043992042542,3,versionB_stim.csv,ReadVersion.csv,Read,Read2,DAY,DARK,Study1,M,73,71,Study,User,-,,Study/JOL,"Study Phase2",510,,,-1,-1,,,,1
w10053729_jjm,vs82vatp7k,"Mediated JOLs",1,141,2023-03-10T06:50:40+00:00,0.7955961227417,3,versionB_stim.csv,ReadVersion.csv,Read,Read2,TEMPERATURE,MORNING,Study1,U,103,67,Study,User,-,,Study/JOL,"Study Phase2",588,,,-1,-1,,,,1
w10053729_jjm,vs82vatp7k,"Mediated JOLs",1,142,2023-03-10T06:50:40+00:00,0.77230906486511,3,versionB_stim.csv,ReadVersion.csv,Read,Read2,TOOTH,HAIR,Study1,M,74,65,Study,User,-,,Study/JOL,"Study Phase2",561,,,-1,-1,,,,1
w10053729_jjm,vs82vatp7k,"Mediated JOLs",1,143,2023-03-10T06:50:41+00:00,0.71904683113098,3,versionB_stim.csv,ReadVersion.csv,Read,Read2,CIRCLE,DANCE,Study1,M,68,74,Study,User,-,,Study/JOL,"Study Phase2",512,,,-1,-1,,,,1
w10053729_jjm,vs82vatp7k,"Mediated JOLs",1,144,2023-03-10T06:50:42+00:00,0.73862719535828,3,versionB_stim.csv,ReadVersion.csv,Read,Read2,BIRTHDAY,PIE,Study1,M,64,105,Study,User,-,,Study/JOL,"Study Phase2",513,,,-1,-1,,,,1
w10053729_jjm,vs82vatp7k,"Mediated JOLs",1,145,2023-03-10T06:50:43+00:00,1.4406278133392,3,versionB_stim.csv,ReadVersion.csv,Read,Read2,GIVE,STEAK,Study1,U,93,83,Study,User,-,,Study/JOL,"Study Phase2",1217,,,-1,-1,,,,1
w10053729_jjm,vs82vatp7k,"Mediated JOLs",1,146,2023-03-10T06:50:45+00:00,1.4265291690826,3,versionB_stim.csv,ReadVersion.csv,Read,Read2,MIRROR,MAROON,Study1,U,91,75,Study,User,-,,Study/JOL,"Study Phase2",1221,,,-1,-1,,,,1
w10053729_jjm,vs82vatp7k,"Mediated JOLs",1,147,2023-03-10T06:50:46+00:00,0.76779079437256,3,versionB_stim.csv,ReadVersion.csv,Read,Read2,MULE,DONKEY,Study1,F,79,72,Study,User,-,,Study/JOL,"Study Phase2",563,,,-1,-1,,,,1
w10053729_jjm,vs82vatp7k,"Mediated JOLs",1,148,2023-03-10T06:50:46+00:00,0.74127411842346,3,versionB_stim.csv,ReadVersion.csv,Read,Read2,LISTEN,FICTION,Study1,U,99,106,Study,User,-,,Study/JOL,"Study Phase2",537,,,-1,-1,,,,1
w10053729_jjm,vs82vatp7k,"Mediated JOLs",1,149,2023-03-10T06:50:48+00:00,1.3993730545044,3,versionB_stim.csv,ReadVersion.csv,Read,Read2,MEAT,KEYS,Study1,U,96,94,Study,User,-,,Study/JOL,"Study Phase2",1194,,,-1,-1,,,,1
w10053729_jjm,vs82vatp7k,"Mediated JOLs",1,150,2023-03-10T06:50:48+00:00,0.74155187606812,3,versionB_stim.csv,ReadVersion.csv,Read,Read2,TREE,SYRUP,Study1,M,66,80,Study,User,-,,Study/JOL,"Study Phase2",539,,,-1,-1,,,,1
w10053729_jjm,vs82vatp7k,"Mediated JOLs",1,151,2023-03-10T06:50:50+00:00,1.4751019477844,3,versionB_stim.csv,ReadVersion.csv,Read,Read2,CRY,BOTTLE,Study1,M,71,96,Study,User,-,,Study/JOL,"Study Phase2",1264,,,-1,-1,,,,1
w10053729_jjm,vs82vatp7k,"Mediated JOLs",1,152,2023-03-10T06:50:51+00:00,0.76489901542664,3,versionB_stim.csv,ReadVersion.csv,Read,Read2,AFFECTION,LOVE,Study1,F,86,66,Study,User,-,,Study/JOL,"Study Phase2",550,,,-1,-1,,,,1
w10053729_jjm,vs82vatp7k,"Mediated JOLs",1,153,2023-03-10T06:50:51+00:00,0.74343419075012,3,versionB_stim.csv,ReadVersion.csv,Read,Read2,LITTER,TRASH,Study1,F,76,77,Study,User,-,,Study/JOL,"Study Phase2",540,,,-1,-1,,,,1
w10053729_jjm,vs82vatp7k,"Mediated JOLs",1,154,2023-03-10T06:50:54+00:00,2.3759958744049,3,versionB_stim.csv,ReadVersion.csv,Read,Read2,SHELL,SHAKE,Study1,U,98,81,Study,User,-,,Study/JOL,"Study Phase2",2158,,,-1,-1,,,,1
w10053729_jjm,vs82vatp7k,"Mediated JOLs",1,155,2023-03-10T06:50:55+00:00,0.8812050819397,3,versionB_stim.csv,ReadVersion.csv,Read,Read2,VEHICLE,CHARM,Study1,U,95,92,Study,User,-,,Study/JOL,"Study Phase2",672,,,-1,-1,,,,1
w10053729_jjm,vs82vatp7k,"Mediated JOLs",1,156,2023-03-10T06:51:00+00:00,4.9454548358917,3,versionB_stim.csv,ReadVersion.csv,Read,Read2,CRACKLE,ELECTION,Study1,U,94,93,Study,User,-,,Study/JOL,"Study Phase2",4679,,,-1,-1,,,,1
w10053729_jjm,vs82vatp7k,"Mediated JOLs",1,157,2023-03-10T06:51:01+00:00,1.1589241027832,3,versionB_stim.csv,ReadVersion.csv,Read,Read2,KEYS,ROD,Study1,U,100,68,Study,User,-,,Study/JOL,"Study Phase2",901,,,-1,-1,,,,1
w10053729_jjm,vs82vatp7k,"Mediated JOLs",1,158,2023-03-10T06:51:02+00:00,1.0136640071869,3,versionB_stim.csv,ReadVersion.csv,Read,Read2,PEANUT,BUTTER,BUFFER1,Buffer,58,61,Study,User,-,,Study/JOL,BUFFER2,780,,,-1,-1,,,,1
w10053729_jjm,vs82vatp7k,"Mediated JOLs",1,159,2023-03-10T06:51:03+00:00,0.98906111717224,3,versionB_stim.csv,ReadVersion.csv,Read,Read2,PITCHER,CATCHER,BUFFER1,Buffer,57,58,Study,User,-,,Study/JOL,BUFFER2,779,,,-1,-1,,,,1
w10053729_jjm,vs82vatp7k,"Mediated JOLs",1,160,2023-03-10T06:51:04+00:00,1.0525758266449,3,versionB_stim.csv,ReadVersion.csv,Read,Read2,CARROT,POTATO,BUFFER4,Buffer,51,55,Study,User,-,,Study/JOL,BUFFER2,868,,,-1,-1,,,,1
w10053729_jjm,vs82vatp7k,"Mediated JOLs",1,161,2023-03-10T06:51:05+00:00,0.90230298042297,3,versionB_stim.csv,ReadVersion.csv,Read,Read2,MOON,SPACE,BUFFER2,Buffer,109,110,Study,User,-,,Study/JOL,BUFFER2,688,,,-1,-1,,,,1
w10053729_jjm,vs82vatp7k,"Mediated JOLs",1,162,2023-03-10T06:51:06+00:00,0.83976411819458,3,versionB_stim.csv,ReadVersion.csv,Read,Read2,CAMP,ADVENTURE,BUFFER4,Buffer,55,56,Study,User,-,,Study/JOL,BUFFER2,621,,,-1,-1,,,,1
w10053729_jjm,vs82vatp7k,"Mediated JOLs",1,163,2023-03-10T06:51:08+00:00,2.6145930290222,3,versionB_stim.csv,ReadVersion.csv,Read,Read2,,,,,,0,Instruct,User,-,"You have completed this section. Please press Enter.",Filler_Instruction,Instruct2,2412,,,-1,-1,,,,1
w10053729_jjm,vs82vatp7k,"Mediated JOLs",1,164,2023-03-10T06:53:09+00:00,120.80536103249,3,versionB_stim.csv,ReadVersion.csv,Read,Read2,,,,,,0,FreeRecall,120,120,"Please list the 50 US states in alphabetical order. The task will automatically advance to the next screen after two minutes.",,Filler1,120003,"Alaska Alabama Arkansas Connecticut Colorado Californ Mississippi Louisiana ",0,5318,119951,0,0,,1
w10053729_jjm,vs82vatp7k,"Mediated JOLs",1,165,2023-03-10T06:56:24+00:00,194.95564985275,3,versionB_stim.csv,ReadVersion.csv,Read,Read2,,,,,,0,Instruct,-,10,"You will now be presented with the first word from each of the previously studied item pairs. Please type the missing word. If you do not know the word, you may guess or press Enter to skip forward to the next pair.",,Instruct3,194042,,,-1,-1,,,,0.844
w10053729_jjm,vs82vatp7k,"Mediated JOLs",1,166,2023-03-10T06:56:49+00:00,25.106166124344,3,versionB_stim.csv,ReadVersion.csv,Read,Read2,HORSE,WHEEL,Study1,M,69,63,Test,User,-,,Recall,Recall2,24662,SHOE,44.444444444444,20851,23823,0,0,,1
w10053729_jjm,vs82vatp7k,"Mediated JOLs",1,167,2023-03-10T06:56:53+00:00,3.6166160106659,3,versionB_stim.csv,ReadVersion.csv,Read,Read2,AFFECTION,LOVE,Study1,F,86,66,Test,User,-,,Recall,Recall2,3374,LOVE,100,1990,2535,1,1,,1
w10053729_jjm,vs82vatp7k,"Mediated JOLs",1,168,2023-03-10T06:57:00+00:00,7.4974210262299,3,versionB_stim.csv,ReadVersion.csv,Read,Read2,MEAT,KEYS,Study1,U,96,94,Test,User,-,,Recall,Recall2,7244,SLICE,22.222222222222,3287,3974,0,0,,1
w10053729_jjm,vs82vatp7k,"Mediated JOLs",1,169,2023-03-10T06:58:22+00:00,81.672530889511,3,versionB_stim.csv,ReadVersion.csv,Read,Read2,MAZE,PHONE,Study1,U,97,97,Test,User,-,,Recall,Recall2,80858,GATE,22.222222222222,2327,79955,0,0,,0.997
w10053729_jjm,vs82vatp7k,"Mediated JOLs",1,170,2023-03-10T06:59:09+00:00,46.830269098282,3,versionB_stim.csv,ReadVersion.csv,Read,Read2,CEILING,CARPET,Study1,M,70,98,Test,User,-,,Recall,Recall2,45948,TOP,22.222222222222,44097,44681,0,0,,0.995
w10053729_jjm,vs82vatp7k,"Mediated JOLs",1,171,2023-03-10T06:59:13+00:00,4.2106149196625,3,versionB_stim.csv,ReadVersion.csv,Read,Read2,BEACH,BOX,Study1,M,62,62,Test,User,-,,Recall,Recall2,3819,BALL,28.571428571429,2361,2898,0,0,,1
w10053729_jjm,vs82vatp7k,"Mediated JOLs",1,172,2023-03-10T06:59:58+00:00,44.645111083984,3,versionB_stim.csv,ReadVersion.csv,Read,Read2,TREE,SYRUP,Study1,M,66,80,Test,User,-,,Recall,Recall2,43874,BRANCH,18.181818181818,4983,42089,0,0,,0.995
w10053729_jjm,vs82vatp7k,"Mediated JOLs",1,173,2023-03-10T07:00:02+00:00,4.1709558963776,3,versionB_stim.csv,ReadVersion.csv,Read,Read2,TEMPERATURE,MORNING,Study1,U,103,67,Test,User,-,,Recall,Recall2,3769,HOT,20,2494,2849,0,0,,1
w10053729_jjm,vs82vatp7k,"Mediated JOLs",1,174,2023-03-10T07:00:24+00:00,22.290321111679,3,versionB_stim.csv,ReadVersion.csv,Read,Read2,WORD,SENTENCE,Study1,F,82,101,Test,User,-,,Recall,Recall2,21977,LETTER,42.857142857143,20372,21348,0,0,,1
w10053729_jjm,vs82vatp7k,"Mediated JOLs",1,175,2023-03-10T07:00:30+00:00,6.2392838001251,3,versionB_stim.csv,ReadVersion.csv,Read,Read2,HYGIENE,CLEAN,Study1,F,83,70,Test,User,-,,Recall,Recall2,5959,CLEAN,100,4148,4870,1,1,,1
w10053729_jjm,vs82vatp7k,"Mediated JOLs",1,176,2023-03-10T07:00:35+00:00,4.2645120620728,3,versionB_stim.csv,ReadVersion.csv,Read,Read2,ORCHID,FLOWER,Study1,F,89,100,Test,User,-,,Recall,Recall2,3989,FLOWER,100,2058,3030,1,1,,1
w10053729_jjm,vs82vatp7k,"Mediated JOLs",1,177,2023-03-10T07:01:02+00:00,27.571905136108,3,versionB_stim.csv,ReadVersion.csv,Read,Read2,SOON,BELT,Study1,U,101,95,Test,User,-,,Recall,Recall2,27307,NOW,0,25334,25636,0,0,,1
w10053729_jjm,vs82vatp7k,"Mediated JOLs",1,178,2023-03-10T07:01:08+00:00,5.4335608482361,3,versionB_stim.csv,ReadVersion.csv,Read,Read2,CRACKLE,ELECTION,Study1,U,94,93,Test,User,-,,Recall,Recall2,5127,BREAK,15.384615384615,3678,4275,0,0,,1
w10053729_jjm,vs82vatp7k,"Mediated JOLs",1,179,2023-03-10T07:01:12+00:00,4.5075831413269,3,versionB_stim.csv,ReadVersion.csv,Read,Read2,TUNA,FISH,Study1,F,90,76,Test,User,-,,Recall,Recall2,4258,FISH,100,2150,2490,1,1,,1
w10053729_jjm,vs82vatp7k,"Mediated JOLs",1,180,2023-03-10T07:01:49+00:00,36.918093919754,3,versionB_stim.csv,ReadVersion.csv,Read,Read2,STRETCH,CLOTH,Study1,U,92,102,Test,User,-,,Recall,Recall2,36073,BEND,0,34809,35242,0,0,,0.882
w10053729_jjm,vs82vatp7k,"Mediated JOLs",1,181,2023-03-10T07:01:52+00:00,3.0964288711548,3,versionB_stim.csv,ReadVersion.csv,Read,Read2,NAP,SLEEP,Study1,F,84,73,Test,User,-,,Recall,Recall2,2815,Sleep,100,1526,1948,1,1,,1
w10053729_jjm,vs82vatp7k,"Mediated JOLs",1,182,2023-03-10T07:01:56+00:00,4.319598197937,3,versionB_stim.csv,ReadVersion.csv,Read,Read2,CAKE,HAND,Study1,U,104,90,Test,User,-,,Recall,Recall2,4025,Batter,20,1821,3293,0,0,,1
w10053729_jjm,vs82vatp7k,"Mediated JOLs",1,183,2023-03-10T07:02:00+00:00,3.3770349025726,3,versionB_stim.csv,ReadVersion.csv,Read,Read2,BIRTHDAY,PIE,Study1,M,64,105,Test,User,-,,Recall,Recall2,3132,Cake,28.571428571429,1908,2296,0,0,,1
w10053729_jjm,vs82vatp7k,"Mediated JOLs",1,184,2023-03-10T07:02:09+00:00,9.7498478889465,3,versionB_stim.csv,ReadVersion.csv,Read,Read2,MIRROR,MAROON,Study1,U,91,75,Test,User,-,,Recall,Recall2,9462,Reflect,15.384615384615,4035,8537,0,0,,1
w10053729_jjm,vs82vatp7k,"Mediated JOLs",1,185,2023-03-10T07:02:15+00:00,5.3552851676941,3,versionB_stim.csv,ReadVersion.csv,Read,Read2,DAY,DARK,Study1,M,73,71,Test,User,-,,Recall,Recall2,5075,Night,0,3237,4042,0,0,,1
w10053729_jjm,vs82vatp7k,"Mediated JOLs",1,186,2023-03-10T07:02:18+00:00,3.5134608745575,3,versionB_stim.csv,ReadVersion.csv,Read,Read2,GIVE,STEAK,Study1,U,93,83,Test,User,-,,Recall,Recall2,3287,Take,66.666666666667,1794,2229,0,0,,1
w10053729_jjm,vs82vatp7k,"Mediated JOLs",1,187,2023-03-10T07:02:22+00:00,3.6072251796722,3,versionB_stim.csv,ReadVersion.csv,Read,Read2,FUZZY,BANG,Study1,U,105,85,Test,User,-,,Recall,Recall2,3374,Taco,25,1907,2471,0,0,,1
w10053729_jjm,vs82vatp7k,"Mediated JOLs",1,188,2023-03-10T07:03:57+00:00,95.103163957596,3,versionB_stim.csv,ReadVersion.csv,Read,Read2,MULE,DONKEY,Study1,F,85,82,Test,User,-,,Recall,Recall2,94093,HORSE,36.363636363636,89346,92326,0,0,,0.944
w10053729_jjm,vs82vatp7k,"Mediated JOLs",1,189,2023-03-10T07:04:52+00:00,54.589406013489,3,versionB_stim.csv,ReadVersion.csv,Read,Read2,CIRCLE,DANCE,Study1,M,68,74,Test,User,-,,Recall,Recall2,53613,ROUND,20,26857,52702,0,0,,1
w10053729_jjm,vs82vatp7k,"Mediated JOLs",1,190,2023-03-10T07:05:16+00:00,24.429442882538,3,versionB_stim.csv,ReadVersion.csv,Read,Read2,SCALP,HEAD,Study1,F,78,99,Test,User,-,,Recall,Recall2,24063,HEAD,100,22779,23366,1,1,,1
w10053729_jjm,vs82vatp7k,"Mediated JOLs",1,191,2023-03-10T07:05:20+00:00,4.294310092926,3,versionB_stim.csv,ReadVersion.csv,Read,Read2,WEDDING,FINGER,Study1,M,72,69,Test,User,-,,Recall,Recall2,4011,RING,60,2498,3084,0,0,,1
w10053729_jjm,vs82vatp7k,"Mediated JOLs",1,192,2023-03-10T07:05:42+00:00,21.964839935303,3,versionB_stim.csv,ReadVersion.csv,Read,Read2,SIGN,TICK,Study1,U,102,89,Test,User,-,,Recall,Recall2,21693,WRITE,22.222222222222,17075,20166,0,0,,1
w10053729_jjm,vs82vatp7k,"Mediated JOLs",1,193,2023-03-10T07:05:47+00:00,4.5988869667053,3,versionB_stim.csv,ReadVersion.csv,Read,Read2,LISTEN,FICTION,Study1,U,99,106,Test,User,-,,Recall,Recall2,4269,HEAR,0,2840,3302,0,0,,1
w10053729_jjm,vs82vatp7k,"Mediated JOLs",1,194,2023-03-10T07:05:58+00:00,11.142918109894,3,versionB_stim.csv,ReadVersion.csv,Read,Read2,WAR,QUIET,Study1,M,63,87,Test,User,-,,Recall,Recall2,10845,CLEAN,20,4700,5391,0,0,,1
w10053729_jjm,vs82vatp7k,"Mediated JOLs",1,195,2023-03-10T07:06:04+00:00,5.5577828884125,3,versionB_stim.csv,ReadVersion.csv,Read,Read2,VEHICLE,CHARM,Study1,U,95,92,Test,User,-,,Recall,Recall2,5279,CAR,75,3991,4286,0,1,,1
w10053729_jjm,vs82vatp7k,"Mediated JOLs",1,196,2023-03-10T07:06:09+00:00,5.7147929668427,3,versionB_stim.csv,ReadVersion.csv,Read,Read2,CREDIT,CARD,Study1,F,88,86,Test,User,-,,Recall,Recall2,5417,CARD,100,3918,4453,1,1,,1
w10053729_jjm,vs82vatp7k,"Mediated JOLs",1,197,2023-03-10T07:06:15+00:00,5.2345530986786,3,versionB_stim.csv,ReadVersion.csv,Read,Read2,MULE,DONKEY,Study1,F,79,72,Test,User,-,,Recall,Recall2,4954,DONKEY,100,2438,3802,1,1,,1
w10053729_jjm,vs82vatp7k,"Mediated JOLs",1,198,2023-03-10T07:06:18+00:00,3.6144869327545,3,versionB_stim.csv,ReadVersion.csv,Read,Read2,TOOTH,HAIR,Study1,M,74,65,Test,User,-,,Recall,Recall2,3375,NAIL,50,1906,2306,0,0,,1
w10053729_jjm,vs82vatp7k,"Mediated JOLs",1,199,2023-03-10T07:07:13+00:00,55.187659978867,3,versionB_stim.csv,ReadVersion.csv,Read,Read2,LITTER,TRASH,Study1,F,76,77,Test,User,-,,Recall,Recall2,54910,DOG,0,52913,53929,0,0,,0.991
w10053729_jjm,vs82vatp7k,"Mediated JOLs",1,200,2023-03-10T07:07:18+00:00,4.6342899799347,3,versionB_stim.csv,ReadVersion.csv,Read,Read2,SHELL,SHAKE,Study1,U,98,81,Test,User,-,,Recall,Recall2,4310,SHOCK,60,2665,3405,0,0,,1
w10053729_jjm,vs82vatp7k,"Mediated JOLs",1,201,2023-03-10T07:07:24+00:00,5.9064509868622,3,versionB_stim.csv,ReadVersion.csv,Read,Read2,BAT,BOUNCE,Study1,M,67,78,Test,User,-,,Recall,Recall2,5601,TABLE,36.363636363636,4124,4698,0,0,,1
w10053729_jjm,vs82vatp7k,"Mediated JOLs",1,202,2023-03-10T07:07:34+00:00,10.423681020737,3,versionB_stim.csv,ReadVersion.csv,Read,Read2,ROUGH,SILK,Study1,M,65,103,Test,User,-,,Recall,Recall2,10165,HEAD,0,7105,7851,0,0,,1
w10053729_jjm,vs82vatp7k,"Mediated JOLs",1,203,2023-03-10T07:08:36+00:00,61.190138101578,3,versionB_stim.csv,ReadVersion.csv,Read,Read2,KEYS,ROD,Study1,U,100,68,Test,User,-,,Recall,Recall2,60865,RING,28.571428571429,59528,59884,0,0,,0.721
w10053729_jjm,vs82vatp7k,"Mediated JOLs",1,204,2023-03-10T07:08:40+00:00,4.8313689231873,3,versionB_stim.csv,ReadVersion.csv,Read,Read2,HARD,COTTON,Study1,M,75,79,Test,User,-,,Recall,Recall2,4518,ROCK,20,3205,3557,0,0,,1
w10053729_jjm,vs82vatp7k,"Mediated JOLs",1,205,2023-03-10T07:08:45+00:00,4.3283319473267,3,versionB_stim.csv,ReadVersion.csv,Read,Read2,SWAN,BIRD,Study1,F,81,84,Test,User,-,,Recall,Recall2,4038,SWIM,25,2606,3073,0,0,,1
w10053729_jjm,vs82vatp7k,"Mediated JOLs",1,206,2023-03-10T07:08:49+00:00,4.432284116745,3,versionB_stim.csv,ReadVersion.csv,Read,Read2,SIP,DRINK,Study1,F,87,104,Test,User,-,,Recall,Recall2,4132,DRINK,100,2516,3098,1,1,,1
w10053729_jjm,vs82vatp7k,"Mediated JOLs",1,207,2023-03-10T07:08:53+00:00,4.3363289833069,3,versionB_stim.csv,ReadVersion.csv,Read,Read2,LION,STRIPES,Study1,M,61,64,Test,User,-,,Recall,Recall2,4044,TIGER,50,2552,3153,0,0,,1
w10053729_jjm,vs82vatp7k,"Mediated JOLs",1,208,2023-03-10T07:09:04+00:00,10.541543960571,3,versionB_stim.csv,ReadVersion.csv,Read,Read2,CRY,BOTTLE,Study1,M,71,96,Test,User,-,,Recall,Recall2,10259,RIGHT,18.181818181818,2181,9375,0,0,,1
w10053729_jjm,vs82vatp7k,"Mediated JOLs",1,209,2023-03-10T07:09:09+00:00,4.7198851108551,3,versionB_stim.csv,ReadVersion.csv,Read,Read2,WAGE,MONEY,Study1,F,77,91,Test,User,-,,Recall,Recall2,4410,BET,25,3239,3560,0,0,,1
w10053729_jjm,vs82vatp7k,"Mediated JOLs",1,210,2023-03-10T07:09:13+00:00,4.6129598617554,3,versionB_stim.csv,ReadVersion.csv,Read,Read2,ROOT,PLANT,Study1,F,80,88,Test,User,-,,Recall,Recall2,4298,TREE,22.222222222222,2948,3497,0,0,,1
w10053729_jjm,vs82vatp7k,"Mediated JOLs",1,211,2023-03-10T07:11:01+00:00,107.58637714386,3,versionB_stim.csv,ReadVersion.csv,Read,Read2,,,,,,0,Instruct,User,-,"You have completed this section. Please press Enter.",,Instruct7,107098,,,-1,-1,,,,0.994
w10053729_jjm,vs82vatp7k,"Mediated JOLs",1,212,2023-03-10T07:11:04+00:00,3.4287109375,3,versionB_stim.csv,ReadVersion.csv,Read,Read2,,,,,,0,Instruct,User,-,"The following screen will ask you a few questions abour your experience today. You must complete these questions to receive credit.",,Instruct8,3174,,,-1,-1,,,,1
