Username,ID,ExperimentName,Session,Trial,Date,TimeDif,"Condition Number","Stimuli File","Order File","Condition Description","Condition Notes",Stimuli*Cue,Stimuli*Answer,Stimuli*Shuffle,"Stimuli*Stimuli Notes",Stimuli*Value,Procedure*Item,"Procedure*Trial Type","Procedure*Max Time","Procedure*Min Time",Procedure*Text,"Procedure*Procedure Notes",Procedure*Shuffle,Procedure*,Response*RT,Response*Response,Response*Accuracy,Response*RTfirst,Response*RTlast,Response*strictAcc,Response*lenientAcc,Response*focus,Response*JOL,Response*Focus
6401000aab3cfc2606de05d1,cct4vsv45k,"Mediated Recog Prolific",1,1,2023-05-08T22:08:32+00:00,17.896298885345,6,versionC_stim.csv,JOLVersion_Recog.csv,"JOL Recog",JOL3,,,,,,0,Instruct,-,5,"In this section, you will be presented with a series of word pairs. Please study each word pair! Your memory will be tested!",Initial_Instruct,Instruct1,,17732,,,-1,-1,,,,,0.707
6401000aab3cfc2606de05d1,cct4vsv45k,"Mediated Recog Prolific",1,2,2023-05-08T22:08:46+00:00,14.155225038528,6,versionC_stim.csv,JOLVersion_Recog.csv,"JOL Recog",JOL3,,,,,,0,Instruct,-,10,"As you study, you will be asked to rate your ability to remember the second item in the pair on a later test. You will make these ratings using a 0 to 100 Scale.",,Instruct13,,13402,,,-1,-1,,,,,0.082
6401000aab3cfc2606de05d1,cct4vsv45k,"Mediated Recog Prolific",1,3,2023-05-08T22:09:01+00:00,14.333118915558,6,versionC_stim.csv,JOLVersion_Recog.csv,"JOL Recog",JOL3,,,,,,0,Instruct,-,10,"For example, if you are given the pair CAT - DOG, a rating of 0 indicates that you would not remember DOG at test, while a rating of 100 indicates full certainty that you would remember the word DOG at test.",,Instruct14,,14041,,,-1,-1,,,,,0.014
6401000aab3cfc2606de05d1,cct4vsv45k,"Mediated Recog Prolific",1,4,2023-05-08T22:09:19+00:00,18.678603172302,6,versionC_stim.csv,JOLVersion_Recog.csv,"JOL Recog",JOL3,,,,,,0,Instruct,-,10,"When making your ratings, it is criticial that you use the full range of the scale. You will be disqualified for only giving ratings of 0 or 100! After making your rating, press Enter to advance to the next pair.",,Instruct15,,18385,,,-1,-1,,,,,0.627
6401000aab3cfc2606de05d1,cct4vsv45k,"Mediated Recog Prolific",1,5,2023-05-08T22:09:22+00:00,2.3396170139313,6,versionC_stim.csv,JOLVersion_Recog.csv,"JOL Recog",JOL3,,,,,,0,Instruct,User,-,"You will now begin the study. Press Enter when you are ready to begin.",,Instruct16,,2062,,,-1,-1,,,,,0.182
6401000aab3cfc2606de05d1,cct4vsv45k,"Mediated Recog Prolific",1,6,2023-05-08T22:09:32+00:00,10.802573919296,6,versionC_stim.csv,JOLVersion_Recog.csv,"JOL Recog",JOL3,SPACE,JAM,BUFFER1,Buffer,5,6,JOL,User,-,"How likely are you to correctly recall the second item in the pair?|Type your response on a scale from 0-100 and then press Enter.",Study/JOL,BUFFER,,10514,,,7901,8061,,,,90,0.396
6401000aab3cfc2606de05d1,cct4vsv45k,"Mediated Recog Prolific",1,7,2023-05-08T22:09:41+00:00,8.6569008827209,6,versionC_stim.csv,JOLVersion_Recog.csv,"JOL Recog",JOL3,PEANUT,BUTTER,BUFFER1,Buffer,3,3,JOL,User,-,"How likely are you to correctly recall the second item in the pair?|Type your response on a scale from 0-100 and then press Enter.",Study/JOL,BUFFER,,8356,,,2553,2617,,,,95,0.476
6401000aab3cfc2606de05d1,cct4vsv45k,"Mediated Recog Prolific",1,8,2023-05-08T22:09:50+00:00,9.402351140976,6,versionC_stim.csv,JOLVersion_Recog.csv,"JOL Recog",JOL3,PITCHER,CATCHER,BUFFER1,Buffer,2,2,JOL,User,-,"How likely are you to correctly recall the second item in the pair?|Type your response on a scale from 0-100 and then press Enter.",Study/JOL,BUFFER,,9092,,,2776,3008,,,,70,0.457
6401000aab3cfc2606de05d1,cct4vsv45k,"Mediated Recog Prolific",1,9,2023-05-08T22:09:58+00:00,7.8241078853607,6,versionC_stim.csv,JOLVersion_Recog.csv,"JOL Recog",JOL3,SCARE,FRIGHT,BUFFER1,Buffer,4,5,JOL,User,-,"How likely are you to correctly recall the second item in the pair?|Type your response on a scale from 0-100 and then press Enter.",Study/JOL,BUFFER,,7518,,,-1,-1,,,,,0.474
6401000aab3cfc2606de05d1,cct4vsv45k,"Mediated Recog Prolific",1,10,2023-05-08T22:10:07+00:00,8.2907600402832,6,versionC_stim.csv,JOLVersion_Recog.csv,"JOL Recog",JOL3,TREES,GREEN,BUFFER1,Buffer,1,4,JOL,User,-,"How likely are you to correctly recall the second item in the pair?|Type your response on a scale from 0-100 and then press Enter.",Study/JOL,BUFFER,,7994,,,7250,7434,,,,90,0.55
6401000aab3cfc2606de05d1,cct4vsv45k,"Mediated Recog Prolific",1,11,2023-05-08T22:10:18+00:00,11.709105968475,6,versionC_stim.csv,JOLVersion_Recog.csv,"JOL Recog",JOL3,CRACKLE,ELECTION,Study1,U,39,8,JOL,User,-,"How likely are you to correctly recall the second item in the pair?|Type your response on a scale from 0-100 and then press Enter.",Study/JOL,"Study Phase",,11417,,,10538,10913,,,,50,0.293
6401000aab3cfc2606de05d1,cct4vsv45k,"Mediated Recog Prolific",1,12,2023-05-08T22:10:25+00:00,6.9361109733582,6,versionC_stim.csv,JOLVersion_Recog.csv,"JOL Recog",JOL3,NAP,SLEEP,Study1,F,29,17,JOL,User,-,"How likely are you to correctly recall the second item in the pair?|Type your response on a scale from 0-100 and then press Enter.",Study/JOL,"Study Phase",,6651,,,2123,2468,,,,95,0.529
6401000aab3cfc2606de05d1,cct4vsv45k,"Mediated Recog Prolific",1,13,2023-05-08T22:10:34+00:00,8.5206110477448,6,versionC_stim.csv,JOLVersion_Recog.csv,"JOL Recog",JOL3,DAY,DARK,Study1,M,18,29,JOL,User,-,"How likely are you to correctly recall the second item in the pair?|Type your response on a scale from 0-100 and then press Enter.",Study/JOL,"Study Phase",,8229,,,3397,3469,,,,75,0.571
6401000aab3cfc2606de05d1,cct4vsv45k,"Mediated Recog Prolific",1,14,2023-05-08T22:10:41+00:00,7.0268979072571,6,versionC_stim.csv,JOLVersion_Recog.csv,"JOL Recog",JOL3,CIRCLE,DANCE,Study1,M,13,25,JOL,User,-,"How likely are you to correctly recall the second item in the pair?|Type your response on a scale from 0-100 and then press Enter.",Study/JOL,"Study Phase",,6736,,,5168,6025,,,,40,0.471
6401000aab3cfc2606de05d1,cct4vsv45k,"Mediated Recog Prolific",1,15,2023-05-08T22:10:50+00:00,9.4574921131134,6,versionC_stim.csv,JOLVersion_Recog.csv,"JOL Recog",JOL3,LITTER,TRASH,Study1,F,21,37,JOL,User,-,"How likely are you to correctly recall the second item in the pair?|Type your response on a scale from 0-100 and then press Enter.",Study/JOL,"Study Phase",,9157,,,5830,8413,,,,90,0.587
6401000aab3cfc2606de05d1,cct4vsv45k,"Mediated Recog Prolific",1,16,2023-05-08T22:10:57+00:00,6.3168430328369,6,versionC_stim.csv,JOLVersion_Recog.csv,"JOL Recog",JOL3,WAGE,MONEY,Study1,F,22,16,JOL,User,-,"How likely are you to correctly recall the second item in the pair?|Type your response on a scale from 0-100 and then press Enter.",Study/JOL,"Study Phase",,6016,,,4960,5327,,,,95,0.452
6401000aab3cfc2606de05d1,cct4vsv45k,"Mediated Recog Prolific",1,17,2023-05-08T22:11:05+00:00,8.7629089355469,6,versionC_stim.csv,JOLVersion_Recog.csv,"JOL Recog",JOL3,VEHICLE,CHARM,Study1,U,40,51,JOL,User,-,"How likely are you to correctly recall the second item in the pair?|Type your response on a scale from 0-100 and then press Enter.",Study/JOL,"Study Phase",,8464,,,7593,8000,,,,40,0.349
6401000aab3cfc2606de05d1,cct4vsv45k,"Mediated Recog Prolific",1,18,2023-05-08T22:11:12+00:00,6.693717956543,6,versionC_stim.csv,JOLVersion_Recog.csv,"JOL Recog",JOL3,WEDDING,FINGER,Study1,M,17,9,JOL,User,-,"How likely are you to correctly recall the second item in the pair?|Type your response on a scale from 0-100 and then press Enter.",Study/JOL,"Study Phase",,6400,,,5655,5848,,,,75,0.469
6401000aab3cfc2606de05d1,cct4vsv45k,"Mediated Recog Prolific",1,19,2023-05-08T22:11:18+00:00,6.3282270431519,6,versionC_stim.csv,JOLVersion_Recog.csv,"JOL Recog",JOL3,GIVE,STEAK,Study1,U,38,13,JOL,User,-,"How likely are you to correctly recall the second item in the pair?|Type your response on a scale from 0-100 and then press Enter.",Study/JOL,"Study Phase",,6037,,,4860,5236,,,,30,0.419
6401000aab3cfc2606de05d1,cct4vsv45k,"Mediated Recog Prolific",1,20,2023-05-08T22:11:23+00:00,4.6871390342712,6,versionC_stim.csv,JOLVersion_Recog.csv,"JOL Recog",JOL3,MIRROR,MAROON,Study1,U,36,46,JOL,User,-,"How likely are you to correctly recall the second item in the pair?|Type your response on a scale from 0-100 and then press Enter.",Study/JOL,"Study Phase",,4405,,,2885,3020,,,,20,1
6401000aab3cfc2606de05d1,cct4vsv45k,"Mediated Recog Prolific",1,21,2023-05-08T22:11:30+00:00,6.6860280036926,6,versionC_stim.csv,JOLVersion_Recog.csv,"JOL Recog",JOL3,LION,STRIPES,Study1,M,6,41,JOL,User,-,"How likely are you to correctly recall the second item in the pair?|Type your response on a scale from 0-100 and then press Enter.",Study/JOL,"Study Phase",,6405,,,5263,5789,,,,40,0.394
6401000aab3cfc2606de05d1,cct4vsv45k,"Mediated Recog Prolific",1,22,2023-05-08T22:11:36+00:00,6.5945210456848,6,versionC_stim.csv,JOLVersion_Recog.csv,"JOL Recog",JOL3,BEACH,BOX,Study1,M,7,22,JOL,User,-,"How likely are you to correctly recall the second item in the pair?|Type your response on a scale from 0-100 and then press Enter.",Study/JOL,"Study Phase",,6309,,,5254,5894,,,,25,0.406
6401000aab3cfc2606de05d1,cct4vsv45k,"Mediated Recog Prolific",1,23,2023-05-08T22:11:42+00:00,5.6882519721985,6,versionC_stim.csv,JOLVersion_Recog.csv,"JOL Recog",JOL3,FUZZY,BANG,Study1,U,50,38,JOL,User,-,"How likely are you to correctly recall the second item in the pair?|Type your response on a scale from 0-100 and then press Enter.",Study/JOL,"Study Phase",,5389,,,4648,4944,,,,10,0.37
6401000aab3cfc2606de05d1,cct4vsv45k,"Mediated Recog Prolific",1,24,2023-05-08T22:11:48+00:00,6.3960180282593,6,versionC_stim.csv,JOLVersion_Recog.csv,"JOL Recog",JOL3,CRY,BOTTLE,Study1,M,16,18,JOL,User,-,"How likely are you to correctly recall the second item in the pair?|Type your response on a scale from 0-100 and then press Enter.",Study/JOL,"Study Phase",,6095,,,5028,5523,,,,25,0.516
6401000aab3cfc2606de05d1,cct4vsv45k,"Mediated Recog Prolific",1,25,2023-05-08T22:11:54+00:00,5.9439508914948,6,versionC_stim.csv,JOLVersion_Recog.csv,"JOL Recog",JOL3,SWAN,BIRD,Study1,F,26,43,JOL,User,-,"How likely are you to correctly recall the second item in the pair?|Type your response on a scale from 0-100 and then press Enter.",Study/JOL,"Study Phase",,5651,,,4567,5014,,,,86,0.483
6401000aab3cfc2606de05d1,cct4vsv45k,"Mediated Recog Prolific",1,26,2023-05-08T22:12:01+00:00,6.4117650985718,6,versionC_stim.csv,JOLVersion_Recog.csv,"JOL Recog",JOL3,WORD,SENTENCE,Study1,F,27,28,JOL,User,-,"How likely are you to correctly recall the second item in the pair?|Type your response on a scale from 0-100 and then press Enter.",Study/JOL,"Study Phase",,6128,,,5145,5312,,,,90,0.452
6401000aab3cfc2606de05d1,cct4vsv45k,"Mediated Recog Prolific",1,27,2023-05-08T22:12:08+00:00,7.4206738471985,6,versionC_stim.csv,JOLVersion_Recog.csv,"JOL Recog",JOL3,MULE,DONKEY,Study1,F,24,24,JOL,User,-,"How likely are you to correctly recall the second item in the pair?|Type your response on a scale from 0-100 and then press Enter.",Study/JOL,"Study Phase",,7137,,,6542,6701,,,,90,0.333
6401000aab3cfc2606de05d1,cct4vsv45k,"Mediated Recog Prolific",1,28,2023-05-08T22:12:16+00:00,7.4853751659393,6,versionC_stim.csv,JOLVersion_Recog.csv,"JOL Recog",JOL3,HARD,COTTON,Study1,M,20,34,JOL,User,-,"How likely are you to correctly recall the second item in the pair?|Type your response on a scale from 0-100 and then press Enter.",Study/JOL,"Study Phase",,5959,,,5339,5554,,,,25,0.467
6401000aab3cfc2606de05d1,cct4vsv45k,"Mediated Recog Prolific",1,29,2023-05-08T22:12:22+00:00,6.1220479011536,6,versionC_stim.csv,JOLVersion_Recog.csv,"JOL Recog",JOL3,SIGN,TICK,Study1,U,47,49,JOL,User,-,"How likely are you to correctly recall the second item in the pair?|Type your response on a scale from 0-100 and then press Enter.",Study/JOL,"Study Phase",,5802,,,5125,5389,,,,80,0.5
6401000aab3cfc2606de05d1,cct4vsv45k,"Mediated Recog Prolific",1,30,2023-05-08T22:12:26+00:00,4.708279132843,6,versionC_stim.csv,JOLVersion_Recog.csv,"JOL Recog",JOL3,MULE,DONKEY,Study1,F,30,23,JOL,User,-,"How likely are you to correctly recall the second item in the pair?|Type your response on a scale from 0-100 and then press Enter.",Study/JOL,"Study Phase",,4413,,,3793,3977,,,,90,0.652
6401000aab3cfc2606de05d1,cct4vsv45k,"Mediated Recog Prolific",1,31,2023-05-08T22:12:30+00:00,3.4977259635925,6,versionC_stim.csv,JOLVersion_Recog.csv,"JOL Recog",JOL3,BAT,BOUNCE,Study1,M,12,19,JOL,User,-,"How likely are you to correctly recall the second item in the pair?|Type your response on a scale from 0-100 and then press Enter.",Study/JOL,"Study Phase",,3200,,,2011,2331,,,,50,1
6401000aab3cfc2606de05d1,cct4vsv45k,"Mediated Recog Prolific",1,32,2023-05-08T22:12:36+00:00,6.2174389362335,6,versionC_stim.csv,JOLVersion_Recog.csv,"JOL Recog",JOL3,BIRTHDAY,PIE,Study1,M,9,42,JOL,User,-,"How likely are you to correctly recall the second item in the pair?|Type your response on a scale from 0-100 and then press Enter.",Study/JOL,"Study Phase",,5917,,,5256,5552,,,,95,0.433
6401000aab3cfc2606de05d1,cct4vsv45k,"Mediated Recog Prolific",1,33,2023-05-08T22:12:42+00:00,5.5431950092316,6,versionC_stim.csv,JOLVersion_Recog.csv,"JOL Recog",JOL3,MEAT,KEYS,Study1,U,41,32,JOL,User,-,"How likely are you to correctly recall the second item in the pair?|Type your response on a scale from 0-100 and then press Enter.",Study/JOL,"Study Phase",,5241,,,4296,4624,,,,40,0.444
6401000aab3cfc2606de05d1,cct4vsv45k,"Mediated Recog Prolific",1,34,2023-05-08T22:12:48+00:00,6.6510019302368,6,versionC_stim.csv,JOLVersion_Recog.csv,"JOL Recog",JOL3,TOOTH,HAIR,Study1,M,19,36,JOL,User,-,"How likely are you to correctly recall the second item in the pair?|Type your response on a scale from 0-100 and then press Enter.",Study/JOL,"Study Phase",,6357,,,5337,5673,,,,30,0.438
6401000aab3cfc2606de05d1,cct4vsv45k,"Mediated Recog Prolific",1,35,2023-05-08T22:12:54+00:00,5.6215901374817,6,versionC_stim.csv,JOLVersion_Recog.csv,"JOL Recog",JOL3,CREDIT,CARD,Study1,F,33,11,JOL,User,-,"How likely are you to correctly recall the second item in the pair?|Type your response on a scale from 0-100 and then press Enter.",Study/JOL,"Study Phase",,5339,,,4663,4975,,,,95,0.444
6401000aab3cfc2606de05d1,cct4vsv45k,"Mediated Recog Prolific",1,36,2023-05-08T22:13:01+00:00,6.9811539649963,6,versionC_stim.csv,JOLVersion_Recog.csv,"JOL Recog",JOL3,WAR,QUIET,Study1,M,8,40,JOL,User,-,"How likely are you to correctly recall the second item in the pair?|Type your response on a scale from 0-100 and then press Enter.",Study/JOL,"Study Phase",,6383,,,5851,6011,,,,45,0.344
6401000aab3cfc2606de05d1,cct4vsv45k,"Mediated Recog Prolific",1,37,2023-05-08T22:13:07+00:00,6.2035629749298,6,versionC_stim.csv,JOLVersion_Recog.csv,"JOL Recog",JOL3,SCALP,HEAD,Study1,F,23,50,JOL,User,-,"How likely are you to correctly recall the second item in the pair?|Type your response on a scale from 0-100 and then press Enter.",Study/JOL,"Study Phase",,5814,,,5345,5465,,,,90,0.367
6401000aab3cfc2606de05d1,cct4vsv45k,"Mediated Recog Prolific",1,38,2023-05-08T22:13:15+00:00,7.8407618999481,6,versionC_stim.csv,JOLVersion_Recog.csv,"JOL Recog",JOL3,TEMPERATURE,MORNING,Study1,U,48,26,JOL,User,-,"How likely are you to correctly recall the second item in the pair?|Type your response on a scale from 0-100 and then press Enter.",Study/JOL,"Study Phase",,7543,,,5835,6234,,,,30,0.474
6401000aab3cfc2606de05d1,cct4vsv45k,"Mediated Recog Prolific",1,39,2023-05-08T22:13:21+00:00,5.4753701686859,6,versionC_stim.csv,JOLVersion_Recog.csv,"JOL Recog",JOL3,CAKE,HAND,Study1,U,49,21,JOL,User,-,"How likely are you to correctly recall the second item in the pair?|Type your response on a scale from 0-100 and then press Enter.",Study/JOL,"Study Phase",,5175,,,4775,4775,,,,0,0.423
6401000aab3cfc2606de05d1,cct4vsv45k,"Mediated Recog Prolific",1,40,2023-05-08T22:13:28+00:00,7.0614318847656,6,versionC_stim.csv,JOLVersion_Recog.csv,"JOL Recog",JOL3,SOON,BELT,Study1,U,46,12,JOL,User,-,"How likely are you to correctly recall the second item in the pair?|Type your response on a scale from 0-100 and then press Enter.",Study/JOL,"Study Phase",,6359,,,5379,5755,,,,10,0.438
6401000aab3cfc2606de05d1,cct4vsv45k,"Mediated Recog Prolific",1,41,2023-05-08T22:13:33+00:00,5.2911250591278,6,versionC_stim.csv,JOLVersion_Recog.csv,"JOL Recog",JOL3,ORCHID,FLOWER,Study1,F,34,20,JOL,User,-,"How likely are you to correctly recall the second item in the pair?|Type your response on a scale from 0-100 and then press Enter.",Study/JOL,"Study Phase",,4962,,,3782,4118,,,,89,1
6401000aab3cfc2606de05d1,cct4vsv45k,"Mediated Recog Prolific",1,42,2023-05-08T22:13:36+00:00,3.2632548809052,6,versionC_stim.csv,JOLVersion_Recog.csv,"JOL Recog",JOL3,HYGIENE,CLEAN,Study1,F,28,47,JOL,User,-,"How likely are you to correctly recall the second item in the pair?|Type your response on a scale from 0-100 and then press Enter.",Study/JOL,"Study Phase",,2965,,,2205,2684,,,,100,1
6401000aab3cfc2606de05d1,cct4vsv45k,"Mediated Recog Prolific",1,43,2023-05-08T22:13:39+00:00,2.8851191997528,6,versionC_stim.csv,JOLVersion_Recog.csv,"JOL Recog",JOL3,TUNA,FISH,Study1,F,35,10,JOL,User,-,"How likely are you to correctly recall the second item in the pair?|Type your response on a scale from 0-100 and then press Enter.",Study/JOL,"Study Phase",,2587,,,1860,2227,,,,95,1
6401000aab3cfc2606de05d1,cct4vsv45k,"Mediated Recog Prolific",1,44,2023-05-08T22:13:46+00:00,6.9547188282013,6,versionC_stim.csv,JOLVersion_Recog.csv,"JOL Recog",JOL3,SIP,DRINK,Study1,F,32,15,JOL,User,-,"How likely are you to correctly recall the second item in the pair?|Type your response on a scale from 0-100 and then press Enter.",Study/JOL,"Study Phase",,6656,,,6136,6271,,,,90,0.382
6401000aab3cfc2606de05d1,cct4vsv45k,"Mediated Recog Prolific",1,45,2023-05-08T22:13:52+00:00,6.3471081256866,6,versionC_stim.csv,JOLVersion_Recog.csv,"JOL Recog",JOL3,CEILING,CARPET,Study1,M,15,35,JOL,User,-,"How likely are you to correctly recall the second item in the pair?|Type your response on a scale from 0-100 and then press Enter.",Study/JOL,"Study Phase",,6043,,,5291,5675,,,,50,0.323
6401000aab3cfc2606de05d1,cct4vsv45k,"Mediated Recog Prolific",1,46,2023-05-08T22:14:00+00:00,7.5827748775482,6,versionC_stim.csv,JOLVersion_Recog.csv,"JOL Recog",JOL3,TREE,SYRUP,Study1,M,11,14,JOL,User,-,"How likely are you to correctly recall the second item in the pair?|Type your response on a scale from 0-100 and then press Enter.",Study/JOL,"Study Phase",,7269,,,6300,6628,,,,40,0.378
6401000aab3cfc2606de05d1,cct4vsv45k,"Mediated Recog Prolific",1,47,2023-05-08T22:14:08+00:00,8.1757559776306,6,versionC_stim.csv,JOLVersion_Recog.csv,"JOL Recog",JOL3,STRETCH,CLOTH,Study1,U,37,7,JOL,User,-,"How likely are you to correctly recall the second item in the pair?|Type your response on a scale from 0-100 and then press Enter.",Study/JOL,"Study Phase",,7882,,,6667,7050,,,,50,0.4
6401000aab3cfc2606de05d1,cct4vsv45k,"Mediated Recog Prolific",1,48,2023-05-08T22:14:16+00:00,7.8453080654144,6,versionC_stim.csv,JOLVersion_Recog.csv,"JOL Recog",JOL3,LISTEN,FICTION,Study1,U,44,31,JOL,User,-,"How likely are you to correctly recall the second item in the pair?|Type your response on a scale from 0-100 and then press Enter.",Study/JOL,"Study Phase",,7563,,,6858,7114,,,,40,0.395
6401000aab3cfc2606de05d1,cct4vsv45k,"Mediated Recog Prolific",1,49,2023-05-08T22:14:22+00:00,5.825413942337,6,versionC_stim.csv,JOLVersion_Recog.csv,"JOL Recog",JOL3,KEYS,ROD,Study1,U,45,44,JOL,User,-,"How likely are you to correctly recall the second item in the pair?|Type your response on a scale from 0-100 and then press Enter.",Study/JOL,"Study Phase",,5542,,,4670,5207,,,,30,0.429
6401000aab3cfc2606de05d1,cct4vsv45k,"Mediated Recog Prolific",1,50,2023-05-08T22:14:28+00:00,5.782014131546,6,versionC_stim.csv,JOLVersion_Recog.csv,"JOL Recog",JOL3,ROOT,PLANT,Study1,F,25,48,JOL,User,-,"How likely are you to correctly recall the second item in the pair?|Type your response on a scale from 0-100 and then press Enter.",Study/JOL,"Study Phase",,5479,,,4888,5086,,,,80,0.429
6401000aab3cfc2606de05d1,cct4vsv45k,"Mediated Recog Prolific",1,51,2023-05-08T22:14:33+00:00,5.8691329956055,6,versionC_stim.csv,JOLVersion_Recog.csv,"JOL Recog",JOL3,HORSE,WHEEL,Study1,M,14,27,JOL,User,-,"How likely are you to correctly recall the second item in the pair?|Type your response on a scale from 0-100 and then press Enter.",Study/JOL,"Study Phase",,5490,,,4465,4736,,,,45,0.429
6401000aab3cfc2606de05d1,cct4vsv45k,"Mediated Recog Prolific",1,52,2023-05-08T22:14:39+00:00,5.7320289611816,6,versionC_stim.csv,JOLVersion_Recog.csv,"JOL Recog",JOL3,AFFECTION,LOVE,Study1,F,31,30,JOL,User,-,"How likely are you to correctly recall the second item in the pair?|Type your response on a scale from 0-100 and then press Enter.",Study/JOL,"Study Phase",,5442,,,4954,5114,,,,98,0.357
6401000aab3cfc2606de05d1,cct4vsv45k,"Mediated Recog Prolific",1,53,2023-05-08T22:14:45+00:00,5.7871510982513,6,versionC_stim.csv,JOLVersion_Recog.csv,"JOL Recog",JOL3,MAZE,PHONE,Study1,U,42,33,JOL,User,-,"How likely are you to correctly recall the second item in the pair?|Type your response on a scale from 0-100 and then press Enter.",Study/JOL,"Study Phase",,5490,,,4859,5130,,,,25,0.393
6401000aab3cfc2606de05d1,cct4vsv45k,"Mediated Recog Prolific",1,54,2023-05-08T22:14:52+00:00,7.4691319465637,6,versionC_stim.csv,JOLVersion_Recog.csv,"JOL Recog",JOL3,SHELL,SHAKE,Study1,U,43,39,JOL,User,-,"How likely are you to correctly recall the second item in the pair?|Type your response on a scale from 0-100 and then press Enter.",Study/JOL,"Study Phase",,7174,,,6359,6711,,,,30,0.472
6401000aab3cfc2606de05d1,cct4vsv45k,"Mediated Recog Prolific",1,55,2023-05-08T22:14:59+00:00,6.8099360466003,6,versionC_stim.csv,JOLVersion_Recog.csv,"JOL Recog",JOL3,ROUGH,SILK,Study1,M,10,45,JOL,User,-,"How likely are you to correctly recall the second item in the pair?|Type your response on a scale from 0-100 and then press Enter.",Study/JOL,"Study Phase",,5996,,,5204,5483,,,,30,0.433
6401000aab3cfc2606de05d1,cct4vsv45k,"Mediated Recog Prolific",1,56,2023-05-08T22:15:05+00:00,6.0032269954681,6,versionC_stim.csv,JOLVersion_Recog.csv,"JOL Recog",JOL3,THING,STUFF,BUFFER2,Buffer,55,56,JOL,User,-,"How likely are you to correctly recall the second item in the pair?|Type your response on a scale from 0-100 and then press Enter.",Study/JOL,BUFFER2,,5696,,,4737,5191,,,,20,0.379
6401000aab3cfc2606de05d1,cct4vsv45k,"Mediated Recog Prolific",1,57,2023-05-08T22:15:12+00:00,6.6099328994751,6,versionC_stim.csv,JOLVersion_Recog.csv,"JOL Recog",JOL3,GEESE,GOOSE,BUFFER2,Buffer,51,53,JOL,User,-,"How likely are you to correctly recall the second item in the pair?|Type your response on a scale from 0-100 and then press Enter.",Study/JOL,BUFFER2,,6317,,,4804,5876,,,,100,0.469
6401000aab3cfc2606de05d1,cct4vsv45k,"Mediated Recog Prolific",1,58,2023-05-08T22:15:17+00:00,5.6677649021149,6,versionC_stim.csv,JOLVersion_Recog.csv,"JOL Recog",JOL3,MOON,SPACE,BUFFER2,Buffer,54,55,JOL,User,-,"How likely are you to correctly recall the second item in the pair?|Type your response on a scale from 0-100 and then press Enter.",Study/JOL,BUFFER2,,5366,,,4813,4958,,,,90,0.444
6401000aab3cfc2606de05d1,cct4vsv45k,"Mediated Recog Prolific",1,59,2023-05-08T22:15:24+00:00,6.2332282066345,6,versionC_stim.csv,JOLVersion_Recog.csv,"JOL Recog",JOL3,MALT,CHOCOLATE,BUFFER2,Buffer,53,52,JOL,User,-,"How likely are you to correctly recall the second item in the pair?|Type your response on a scale from 0-100 and then press Enter.",Study/JOL,BUFFER2,,5933,,,5128,5401,,,,70,0.4
6401000aab3cfc2606de05d1,cct4vsv45k,"Mediated Recog Prolific",1,60,2023-05-08T22:15:28+00:00,4.7370858192444,6,versionC_stim.csv,JOLVersion_Recog.csv,"JOL Recog",JOL3,SHERRIF,POLICE,BUFFER2,Buffer,52,54,JOL,User,-,"How likely are you to correctly recall the second item in the pair?|Type your response on a scale from 0-100 and then press Enter.",Study/JOL,BUFFER2,,4428,,,2135,3512,,,,90,1
6401000aab3cfc2606de05d1,cct4vsv45k,"Mediated Recog Prolific",1,61,2023-05-08T22:15:30+00:00,1.7690711021423,6,versionC_stim.csv,JOLVersion_Recog.csv,"JOL Recog",JOL3,,,,,,0,Instruct,User,-,"You have completed this section. Please press Enter.",Filler_Instruction,Instruct2,,1461,,,-1,-1,,,,,1
6401000aab3cfc2606de05d1,cct4vsv45k,"Mediated Recog Prolific",1,62,2023-05-08T22:17:31+00:00,120.54279398918,6,versionC_stim.csv,JOLVersion_Recog.csv,"JOL Recog",JOL3,,,,,,0,FreeRecall,120,120,"Please list the 50 US states in alphabetical order. The task will automatically advance to the next screen after two minutes.",,Filler1,,120000,"arizona, california, indiana, new york, texas, virginia (not sure of rest, i dont live in america and not studied geography)",0,25146,73100,0,0,,,0.464
6401000aab3cfc2606de05d1,cct4vsv45k,"Mediated Recog Prolific",1,63,2023-05-08T22:17:42+00:00,11.61537694931,6,versionC_stim.csv,JOLVersion_Recog.csv,"JOL Recog",JOL3,,,,,,0,Instruct,User,10,"Your memory will now be tested. You will be presented with a series of words that may or may not have previously been presented alongisde another word. If the word on the screen was previously studied, please select YES. If the word was not studied, select NO. PLEASE DO NOT SKIP ITEMS! Click next when you are ready to begin.",,Instruc7982154d,,11311,,,-1,-1,,,,,0
6401000aab3cfc2606de05d1,cct4vsv45k,"Mediated Recog Prolific",1,64,2023-05-08T22:17:50+00:00,7.6904630661011,6,versionC_stim.csv,JOLVersion_Recog.csv,"JOL Recog",JOL3,,TOIL,RECOG,CONTROL,97,107,Likert,User,1,"Was this item previously studied?",PRESENTED,Recog,1::2,7385,NO,33.333333333333,-1,-1,0,0,,,0.324
6401000aab3cfc2606de05d1,cct4vsv45k,"Mediated Recog Prolific",1,65,2023-05-08T22:17:52+00:00,2.305743932724,6,versionC_stim.csv,JOLVersion_Recog.csv,"JOL Recog",JOL3,,WOLF,RECOG,CONTROL,89,112,Likert,User,1,"Was this item previously studied?",PRESENTED,Recog,1::2,2003,NO,33.333333333333,-1,-1,0,0,,,1
6401000aab3cfc2606de05d1,cct4vsv45k,"Mediated Recog Prolific",1,66,2023-05-08T22:18:00+00:00,7.506744146347,6,versionC_stim.csv,JOLVersion_Recog.csv,"JOL Recog",JOL3,,BOX,RECOG,Presented,103,137,Likert,User,1,"Was this item previously studied?",PRESENTED,Recog,1::2,7198,YES,0,-1,-1,0,0,,,0.472
6401000aab3cfc2606de05d1,cct4vsv45k,"Mediated Recog Prolific",1,67,2023-05-08T22:18:06+00:00,6.357293844223,6,versionC_stim.csv,JOLVersion_Recog.csv,"JOL Recog",JOL3,,CARD,RECOG,Presented,129,133,Likert,User,1,"Was this item previously studied?",PRESENTED,Recog,1::2,6054,YES,0,-1,-1,0,0,,,0.387
6401000aab3cfc2606de05d1,cct4vsv45k,"Mediated Recog Prolific",1,68,2023-05-08T22:18:09+00:00,2.5003221035004,6,versionC_stim.csv,JOLVersion_Recog.csv,"JOL Recog",JOL3,,SILK,RECOG,Presented,106,128,Likert,User,1,"Was this item previously studied?",PRESENTED,Recog,1::2,2221,YES,28.571428571429,-1,-1,0,0,,,1
6401000aab3cfc2606de05d1,cct4vsv45k,"Mediated Recog Prolific",1,69,2023-05-08T22:18:16+00:00,7.644229888916,6,versionC_stim.csv,JOLVersion_Recog.csv,"JOL Recog",JOL3,,PLANT,RECOG,CONTROL,72,135,Likert,User,1,"Was this item previously studied?",PRESENTED,Recog,1::2,7354,YES,0,-1,-1,0,0,,,0.378
6401000aab3cfc2606de05d1,cct4vsv45k,"Mediated Recog Prolific",1,70,2023-05-08T22:18:19+00:00,2.4155881404877,6,versionC_stim.csv,JOLVersion_Recog.csv,"JOL Recog",JOL3,,COLLAR,RECOG,CONTROL,59,57,Likert,User,1,"Was this item previously studied?",CONTROL,Recog,1::2,2115,NO,25,-1,-1,0,0,,,1
6401000aab3cfc2606de05d1,cct4vsv45k,"Mediated Recog Prolific",1,71,2023-05-08T22:18:22+00:00,2.901535987854,6,versionC_stim.csv,JOLVersion_Recog.csv,"JOL Recog",JOL3,,RED,RECOG,CONTROL,76,122,Likert,User,1,"Was this item previously studied?",PRESENTED,Recog,1::2,2597,NO,0,-1,-1,0,0,,,1
6401000aab3cfc2606de05d1,cct4vsv45k,"Mediated Recog Prolific",1,72,2023-05-08T22:18:24+00:00,2.3064408302307,6,versionC_stim.csv,JOLVersion_Recog.csv,"JOL Recog",JOL3,,BANG,RECOG,Presented,146,125,Likert,User,1,"Was this item previously studied?",PRESENTED,Recog,1::2,2006,YES,0,-1,-1,0,0,,,1
6401000aab3cfc2606de05d1,cct4vsv45k,"Mediated Recog Prolific",1,73,2023-05-08T22:18:33+00:00,8.8956341743469,6,versionC_stim.csv,JOLVersion_Recog.csv,"JOL Recog",JOL3,,CLOTHES,RECOG,CONTROL,75,63,Likert,User,1,"Was this item previously studied?",CONTROL,Recog,1::2,8559,NO,22.222222222222,-1,-1,0,0,,,0.233
6401000aab3cfc2606de05d1,cct4vsv45k,"Mediated Recog Prolific",1,74,2023-05-08T22:18:35+00:00,2.4881608486176,6,versionC_stim.csv,JOLVersion_Recog.csv,"JOL Recog",JOL3,,KNOB,RECOG,CONTROL,70,119,Likert,User,1,"Was this item previously studied?",PRESENTED,Recog,1::2,2178,NO,66.666666666667,-1,-1,0,0,,,1
6401000aab3cfc2606de05d1,cct4vsv45k,"Mediated Recog Prolific",1,75,2023-05-08T22:18:43+00:00,7.9684691429138,6,versionC_stim.csv,JOLVersion_Recog.csv,"JOL Recog",JOL3,,STING,RECOG,CONTROL,81,114,Likert,User,1,"Was this item previously studied?",PRESENTED,Recog,1::2,7667,NO,28.571428571429,-1,-1,0,0,,,0.333
6401000aab3cfc2606de05d1,cct4vsv45k,"Mediated Recog Prolific",1,76,2023-05-08T22:18:51+00:00,7.6753098964691,6,versionC_stim.csv,JOLVersion_Recog.csv,"JOL Recog",JOL3,,MORNING,RECOG,Presented,144,144,Likert,User,1,"Was this item previously studied?",PRESENTED,Recog,1::2,7385,YES,0,-1,-1,0,0,,,0.378
6401000aab3cfc2606de05d1,cct4vsv45k,"Mediated Recog Prolific",1,77,2023-05-08T22:18:53+00:00,1.7753009796143,6,versionC_stim.csv,JOLVersion_Recog.csv,"JOL Recog",JOL3,,PLANT,RECOG,Presented,121,79,Likert,User,1,"Was this item previously studied?",CONTROL,Recog,1::2,1467,YES,0,-1,-1,0,0,,,1
6401000aab3cfc2606de05d1,cct4vsv45k,"Mediated Recog Prolific",1,78,2023-05-08T22:19:00+00:00,6.8051719665527,6,versionC_stim.csv,JOLVersion_Recog.csv,"JOL Recog",JOL3,,COLD,RECOG,CONTROL,83,132,Likert,User,1,"Was this item previously studied?",PRESENTED,Recog,1::2,6497,NO,33.333333333333,-1,-1,0,0,,,0.364
6401000aab3cfc2606de05d1,cct4vsv45k,"Mediated Recog Prolific",1,79,2023-05-08T22:19:01+00:00,1.8550531864166,6,versionC_stim.csv,JOLVersion_Recog.csv,"JOL Recog",JOL3,,CLOTH,RECOG,Presented,133,106,Likert,User,1,"Was this item previously studied?",PRESENTED,Recog,1::2,1549,YES,0,-1,-1,0,0,,,1
6401000aab3cfc2606de05d1,cct4vsv45k,"Mediated Recog Prolific",1,80,2023-05-08T22:19:04+00:00,2.2716770172119,6,versionC_stim.csv,JOLVersion_Recog.csv,"JOL Recog",JOL3,,DONKEY,RECOG,Presented,126,124,Likert,User,1,"Was this item previously studied?",PRESENTED,Recog,1::2,1969,YES,22.222222222222,-1,-1,0,0,,,1
6401000aab3cfc2606de05d1,cct4vsv45k,"Mediated Recog Prolific",1,81,2023-05-08T22:19:11+00:00,7.1270189285278,6,versionC_stim.csv,JOLVersion_Recog.csv,"JOL Recog",JOL3,,STOP,RECOG,CONTROL,58,75,Likert,User,1,"Was this item previously studied?",CONTROL,Recog,1::2,6823,NO,33.333333333333,-1,-1,0,0,,,0.4
6401000aab3cfc2606de05d1,cct4vsv45k,"Mediated Recog Prolific",1,82,2023-05-08T22:19:18+00:00,7.569776058197,6,versionC_stim.csv,JOLVersion_Recog.csv,"JOL Recog",JOL3,,CHARM,RECOG,Presented,136,108,Likert,User,1,"Was this item previously studied?",PRESENTED,Recog,1::2,7269,NO,0,-1,-1,0,0,,,0.459
6401000aab3cfc2606de05d1,cct4vsv45k,"Mediated Recog Prolific",1,83,2023-05-08T22:19:20+00:00,2.0581719875336,6,versionC_stim.csv,JOLVersion_Recog.csv,"JOL Recog",JOL3,,BUSINESS,RECOG,CONTROL,95,59,Likert,User,1,"Was this item previously studied?",CONTROL,Recog,1::2,1758,NO,20,-1,-1,0,0,,,1
6401000aab3cfc2606de05d1,cct4vsv45k,"Mediated Recog Prolific",1,84,2023-05-08T22:19:24+00:00,3.0754299163818,6,versionC_stim.csv,JOLVersion_Recog.csv,"JOL Recog",JOL3,,BASEBALL,RECOG,CONTROL,80,129,Likert,User,1,"Was this item previously studied?",PRESENTED,Recog,1::2,2776,NO,0,-1,-1,0,0,,,1
6401000aab3cfc2606de05d1,cct4vsv45k,"Mediated Recog Prolific",1,85,2023-05-08T22:19:32+00:00,8.4569120407104,6,versionC_stim.csv,JOLVersion_Recog.csv,"JOL Recog",JOL3,,HIDE,RECOG,CONTROL,96,127,Likert,User,1,"Was this item previously studied?",PRESENTED,Recog,1::2,8154,NO,0,-1,-1,0,0,,,0.293
6401000aab3cfc2606de05d1,cct4vsv45k,"Mediated Recog Prolific",1,86,2023-05-08T22:19:39+00:00,6.6069478988647,6,versionC_stim.csv,JOLVersion_Recog.csv,"JOL Recog",JOL3,,COW,RECOG,CONTROL,84,142,Likert,User,1,"Was this item previously studied?",PRESENTED,Recog,1::2,6310,NO,40,-1,-1,0,0,,,0.469
6401000aab3cfc2606de05d1,cct4vsv45k,"Mediated Recog Prolific",1,87,2023-05-08T22:19:48+00:00,8.9531900882721,6,versionC_stim.csv,JOLVersion_Recog.csv,"JOL Recog",JOL3,,SYRUP,RECOG,Presented,107,143,Likert,User,1,"Was this item previously studied?",PRESENTED,Recog,1::2,8651,YES,25,-1,-1,0,0,,,0.455
6401000aab3cfc2606de05d1,cct4vsv45k,"Mediated Recog Prolific",1,88,2023-05-08T22:19:50+00:00,2.6338620185852,6,versionC_stim.csv,JOLVersion_Recog.csv,"JOL Recog",JOL3,,MUSCLE,RECOG,CONTROL,71,61,Likert,User,1,"Was this item previously studied?",CONTROL,Recog,1::2,2328,NO,0,-1,-1,0,0,,,1
6401000aab3cfc2606de05d1,cct4vsv45k,"Mediated Recog Prolific",1,89,2023-05-08T22:19:58+00:00,7.3806159496307,6,versionC_stim.csv,JOLVersion_Recog.csv,"JOL Recog",JOL3,,ELECTION,RECOG,Presented,135,139,Likert,User,1,"Was this item previously studied?",PRESENTED,Recog,1::2,6878,YES,18.181818181818,-1,-1,0,0,,,0.4
6401000aab3cfc2606de05d1,cct4vsv45k,"Mediated Recog Prolific",1,90,2023-05-08T22:20:04+00:00,6.5527338981628,6,versionC_stim.csv,JOLVersion_Recog.csv,"JOL Recog",JOL3,,VASE,RECOG,CONTROL,87,84,Likert,User,1,"Was this item previously studied?",CONTROL,Recog,1::2,6231,NO,0,-1,-1,0,0,,,0.406
6401000aab3cfc2606de05d1,cct4vsv45k,"Mediated Recog Prolific",1,91,2023-05-08T22:20:11+00:00,6.4960131645203,6,versionC_stim.csv,JOLVersion_Recog.csv,"JOL Recog",JOL3,,FINGER,RECOG,Presented,113,145,Likert,User,1,"Was this item previously studied?",PRESENTED,Recog,1::2,6187,YES,22.222222222222,-1,-1,0,0,,,0.387
6401000aab3cfc2606de05d1,cct4vsv45k,"Mediated Recog Prolific",1,92,2023-05-08T22:20:19+00:00,7.8650188446045,6,versionC_stim.csv,JOLVersion_Recog.csv,"JOL Recog",JOL3,,MONEY,RECOG,Presented,118,99,Likert,User,1,"Was this item previously studied?",CONTROL,Recog,1::2,7559,YES,25,-1,-1,0,0,,,0.447
6401000aab3cfc2606de05d1,cct4vsv45k,"Mediated Recog Prolific",1,93,2023-05-08T22:20:20+00:00,1.8826451301575,6,versionC_stim.csv,JOLVersion_Recog.csv,"JOL Recog",JOL3,,HAND,RECOG,Presented,145,95,Likert,User,1,"Was this item previously studied?",CONTROL,Recog,1::2,1577,YES,0,-1,-1,0,0,,,1
6401000aab3cfc2606de05d1,cct4vsv45k,"Mediated Recog Prolific",1,94,2023-05-08T22:20:26+00:00,6.0529940128326,6,versionC_stim.csv,JOLVersion_Recog.csv,"JOL Recog",JOL3,,LEG,RECOG,CONTROL,101,72,Likert,User,1,"Was this item previously studied?",CONTROL,Recog,1::2,5758,NO,0,-1,-1,0,0,,,0.379
6401000aab3cfc2606de05d1,cct4vsv45k,"Mediated Recog Prolific",1,95,2023-05-08T22:20:33+00:00,6.4591760635376,6,versionC_stim.csv,JOLVersion_Recog.csv,"JOL Recog",JOL3,,BRONZE,RECOG,CONTROL,99,126,Likert,User,1,"Was this item previously studied?",PRESENTED,Recog,1::2,6175,NO,25,-1,-1,0,0,,,0.355
6401000aab3cfc2606de05d1,cct4vsv45k,"Mediated Recog Prolific",1,96,2023-05-08T22:20:35+00:00,1.8038609027863,6,versionC_stim.csv,JOLVersion_Recog.csv,"JOL Recog",JOL3,,TRASH,RECOG,Presented,117,71,Likert,User,1,"Was this item previously studied?",CONTROL,Recog,1::2,1518,YES,25,-1,-1,0,0,,,1
6401000aab3cfc2606de05d1,cct4vsv45k,"Mediated Recog Prolific",1,97,2023-05-08T22:20:38+00:00,3.6104369163513,6,versionC_stim.csv,JOLVersion_Recog.csv,"JOL Recog",JOL3,,CUT,RECOG,CONTROL,73,121,Likert,User,1,"Was this item previously studied?",PRESENTED,Recog,1::2,3325,NO,0,-1,-1,0,0,,,1
6401000aab3cfc2606de05d1,cct4vsv45k,"Mediated Recog Prolific",1,98,2023-05-08T22:20:46+00:00,7.2387881278992,6,versionC_stim.csv,JOLVersion_Recog.csv,"JOL Recog",JOL3,,SMELL,RECOG,CONTROL,79,65,Likert,User,1,"Was this item previously studied?",CONTROL,Recog,1::2,6956,NO,0,-1,-1,0,0,,,0.371
6401000aab3cfc2606de05d1,cct4vsv45k,"Mediated Recog Prolific",1,99,2023-05-08T22:20:52+00:00,6.0389659404755,6,versionC_stim.csv,JOLVersion_Recog.csv,"JOL Recog",JOL3,,MAROON,RECOG,Presented,132,58,Likert,User,1,"Was this item previously studied?",CONTROL,Recog,1::2,5738,NO,25,-1,-1,0,0,,,0.379
6401000aab3cfc2606de05d1,cct4vsv45k,"Mediated Recog Prolific",1,100,2023-05-08T22:20:54+00:00,2.4596080780029,6,versionC_stim.csv,JOLVersion_Recog.csv,"JOL Recog",JOL3,,FICTION,RECOG,Presented,140,88,Likert,User,1,"Was this item previously studied?",CONTROL,Recog,1::2,2157,YES,0,-1,-1,0,0,,,1
6401000aab3cfc2606de05d1,cct4vsv45k,"Mediated Recog Prolific",1,101,2023-05-08T22:21:06+00:00,11.81755399704,6,versionC_stim.csv,JOLVersion_Recog.csv,"JOL Recog",JOL3,,CAR,RECOG,CONTROL,88,102,Likert,User,1,"Was this item previously studied?",PRESENTED,Recog,1::2,10891,NO,0,-1,-1,0,0,,,0.236
6401000aab3cfc2606de05d1,cct4vsv45k,"Mediated Recog Prolific",1,102,2023-05-08T22:21:08+00:00,2.0622470378876,6,versionC_stim.csv,JOLVersion_Recog.csv,"JOL Recog",JOL3,,COTTON,RECOG,Presented,116,109,Likert,User,1,"Was this item previously studied?",PRESENTED,Recog,1::2,1772,YES,0,-1,-1,0,0,,,1
6401000aab3cfc2606de05d1,cct4vsv45k,"Mediated Recog Prolific",1,103,2023-05-08T22:21:14+00:00,6.263561964035,6,versionC_stim.csv,JOLVersion_Recog.csv,"JOL Recog",JOL3,,BOUNCE,RECOG,Presented,108,101,Likert,User,1,"Was this item previously studied?",CONTROL,Recog,1::2,5974,NO,25,-1,-1,0,0,,,0.3
6401000aab3cfc2606de05d1,cct4vsv45k,"Mediated Recog Prolific",1,104,2023-05-08T22:21:16+00:00,2.1431748867035,6,versionC_stim.csv,JOLVersion_Recog.csv,"JOL Recog",JOL3,,FEATHER,RECOG,CONTROL,64,105,Likert,User,1,"Was this item previously studied?",PRESENTED,Recog,1::2,1858,NO,0,-1,-1,0,0,,,1
6401000aab3cfc2606de05d1,cct4vsv45k,"Mediated Recog Prolific",1,105,2023-05-08T22:21:23+00:00,6.8438079357147,6,versionC_stim.csv,JOLVersion_Recog.csv,"JOL Recog",JOL3,,HEAD,RECOG,Presented,119,113,Likert,User,1,"Was this item previously studied?",PRESENTED,Recog,1::2,6548,YES,28.571428571429,-1,-1,0,0,,,0.364
6401000aab3cfc2606de05d1,cct4vsv45k,"Mediated Recog Prolific",1,106,2023-05-08T22:21:31+00:00,7.6529011726379,6,versionC_stim.csv,JOLVersion_Recog.csv,"JOL Recog",JOL3,,LAWYER,RECOG,CONTROL,62,130,Likert,User,1,"Was this item previously studied?",PRESENTED,Recog,1::2,7349,NO,0,-1,-1,0,0,,,0.351
6401000aab3cfc2606de05d1,cct4vsv45k,"Mediated Recog Prolific",1,107,2023-05-08T22:21:33+00:00,1.8956258296967,6,versionC_stim.csv,JOLVersion_Recog.csv,"JOL Recog",JOL3,,LOVE,RECOG,Presented,127,91,Likert,User,1,"Was this item previously studied?",CONTROL,Recog,1::2,1593,YES,28.571428571429,-1,-1,0,0,,,1
6401000aab3cfc2606de05d1,cct4vsv45k,"Mediated Recog Prolific",1,108,2023-05-08T22:21:40+00:00,6.8540880680084,6,versionC_stim.csv,JOLVersion_Recog.csv,"JOL Recog",JOL3,,SACK,RECOG,CONTROL,93,87,Likert,User,1,"Was this item previously studied?",CONTROL,Recog,1::2,6559,NO,0,-1,-1,0,0,,,0.364
6401000aab3cfc2606de05d1,cct4vsv45k,"Mediated Recog Prolific",1,109,2023-05-08T22:21:47+00:00,7.60893201828,6,versionC_stim.csv,JOLVersion_Recog.csv,"JOL Recog",JOL3,,CLEAN,RECOG,Presented,124,70,Likert,User,1,"Was this item previously studied?",CONTROL,Recog,1::2,7319,NO,28.571428571429,-1,-1,0,0,,,0.297
6401000aab3cfc2606de05d1,cct4vsv45k,"Mediated Recog Prolific",1,110,2023-05-08T22:21:54+00:00,6.3549520969391,6,versionC_stim.csv,JOLVersion_Recog.csv,"JOL Recog",JOL3,,SENTENCE,RECOG,Presented,123,76,Likert,User,1,"Was this item previously studied?",CONTROL,Recog,1::2,6058,YES,18.181818181818,-1,-1,0,0,,,0.387
6401000aab3cfc2606de05d1,cct4vsv45k,"Mediated Recog Prolific",1,111,2023-05-08T22:22:01+00:00,7.852294921875,6,versionC_stim.csv,JOLVersion_Recog.csv,"JOL Recog",JOL3,,BIRD,RECOG,Presented,122,117,Likert,User,1,"Was this item previously studied?",PRESENTED,Recog,1::2,7566,YES,0,-1,-1,0,0,,,0.5
6401000aab3cfc2606de05d1,cct4vsv45k,"Mediated Recog Prolific",1,112,2023-05-08T22:22:08+00:00,6.6108250617981,6,versionC_stim.csv,JOLVersion_Recog.csv,"JOL Recog",JOL3,,PAPER,RECOG,CONTROL,78,69,Likert,User,1,"Was this item previously studied?",CONTROL,Recog,1::2,6318,NO,0,-1,-1,0,0,,,0.438
6401000aab3cfc2606de05d1,cct4vsv45k,"Mediated Recog Prolific",1,113,2023-05-08T22:22:11+00:00,2.5749099254608,6,versionC_stim.csv,JOLVersion_Recog.csv,"JOL Recog",JOL3,,STRIPES,RECOG,Presented,102,103,Likert,User,1,"Was this item previously studied?",PRESENTED,Recog,1::2,2272,YES,40,-1,-1,0,0,,,1
6401000aab3cfc2606de05d1,cct4vsv45k,"Mediated Recog Prolific",1,114,2023-05-08T22:22:13+00:00,2.4728178977966,6,versionC_stim.csv,JOLVersion_Recog.csv,"JOL Recog",JOL3,,TICK,RECOG,Presented,143,115,Likert,User,1,"Was this item previously studied?",PRESENTED,Recog,1::2,2168,YES,0,-1,-1,0,0,,,1
6401000aab3cfc2606de05d1,cct4vsv45k,"Mediated Recog Prolific",1,115,2023-05-08T22:22:20+00:00,7.4312682151794,6,versionC_stim.csv,JOLVersion_Recog.csv,"JOL Recog",JOL3,,ISLAND,RECOG,CONTROL,60,60,Likert,User,1,"Was this item previously studied?",CONTROL,Recog,1::2,7127,NO,25,-1,-1,0,0,,,0.278
6401000aab3cfc2606de05d1,cct4vsv45k,"Mediated Recog Prolific",1,116,2023-05-08T22:22:22+00:00,1.9588599205017,6,versionC_stim.csv,JOLVersion_Recog.csv,"JOL Recog",JOL3,,FIGHT,RECOG,CONTROL,82,83,Likert,User,1,"Was this item previously studied?",CONTROL,Recog,1::2,1657,NO,0,-1,-1,0,0,,,1
6401000aab3cfc2606de05d1,cct4vsv45k,"Mediated Recog Prolific",1,117,2023-05-08T22:22:26+00:00,3.1130459308624,6,versionC_stim.csv,JOLVersion_Recog.csv,"JOL Recog",JOL3,,CHILDREN,RECOG,CONTROL,100,66,Likert,User,1,"Was this item previously studied?",CONTROL,Recog,1::2,2807,NO,20,-1,-1,0,0,,,1
6401000aab3cfc2606de05d1,cct4vsv45k,"Mediated Recog Prolific",1,118,2023-05-08T22:22:28+00:00,1.9787089824677,6,versionC_stim.csv,JOLVersion_Recog.csv,"JOL Recog",JOL3,,SNOW,RECOG,CONTROL,57,96,Likert,User,1,"Was this item previously studied?",CONTROL,Recog,1::2,1678,YES,28.571428571429,-1,-1,0,0,,,1
6401000aab3cfc2606de05d1,cct4vsv45k,"Mediated Recog Prolific",1,119,2023-05-08T22:22:36+00:00,8.7965230941772,6,versionC_stim.csv,JOLVersion_Recog.csv,"JOL Recog",JOL3,,PHONE,RECOG,Presented,138,111,Likert,User,1,"Was this item previously studied?",PRESENTED,Recog,1::2,8503,YES,25,-1,-1,0,0,,,0.279
6401000aab3cfc2606de05d1,cct4vsv45k,"Mediated Recog Prolific",1,120,2023-05-08T22:22:39+00:00,2.3962450027466,6,versionC_stim.csv,JOLVersion_Recog.csv,"JOL Recog",JOL3,,CLUTTER,RECOG,CONTROL,92,110,Likert,User,1,"Was this item previously studied?",PRESENTED,Recog,1::2,2112,NO,0,-1,-1,0,0,,,1
6401000aab3cfc2606de05d1,cct4vsv45k,"Mediated Recog Prolific",1,121,2023-05-08T22:22:41+00:00,2.7497239112854,6,versionC_stim.csv,JOLVersion_Recog.csv,"JOL Recog",JOL3,,THIGH,RECOG,CONTROL,68,138,Likert,User,1,"Was this item previously studied?",PRESENTED,Recog,1::2,2467,NO,0,-1,-1,0,0,,,1
6401000aab3cfc2606de05d1,cct4vsv45k,"Mediated Recog Prolific",1,122,2023-05-08T22:22:44+00:00,2.3460900783539,6,versionC_stim.csv,JOLVersion_Recog.csv,"JOL Recog",JOL3,,DARK,RECOG,Presented,114,73,Likert,User,1,"Was this item previously studied?",CONTROL,Recog,1::2,2061,YES,0,-1,-1,0,0,,,1
6401000aab3cfc2606de05d1,cct4vsv45k,"Mediated Recog Prolific",1,123,2023-05-08T22:22:46+00:00,1.9417989253998,6,versionC_stim.csv,JOLVersion_Recog.csv,"JOL Recog",JOL3,,WHEEL,RECOG,Presented,110,104,Likert,User,1,"Was this item previously studied?",PRESENTED,Recog,1::2,1654,YES,25,-1,-1,0,0,,,1
6401000aab3cfc2606de05d1,cct4vsv45k,"Mediated Recog Prolific",1,124,2023-05-08T22:22:48+00:00,1.9664781093597,6,versionC_stim.csv,JOLVersion_Recog.csv,"JOL Recog",JOL3,,DANCE,RECOG,Presented,109,85,Likert,User,1,"Was this item previously studied?",CONTROL,Recog,1::2,1673,YES,25,-1,-1,0,0,,,1
6401000aab3cfc2606de05d1,cct4vsv45k,"Mediated Recog Prolific",1,125,2023-05-08T22:22:51+00:00,2.9607260227203,6,versionC_stim.csv,JOLVersion_Recog.csv,"JOL Recog",JOL3,,RIDDLE,RECOG,CONTROL,91,97,Likert,User,1,"Was this item previously studied?",CONTROL,Recog,1::2,2675,NO,0,-1,-1,0,0,,,1
6401000aab3cfc2606de05d1,cct4vsv45k,"Mediated Recog Prolific",1,126,2023-05-08T22:22:53+00:00,2.4474318027496,6,versionC_stim.csv,JOLVersion_Recog.csv,"JOL Recog",JOL3,,QUIET,RECOG,Presented,104,67,Likert,User,1,"Was this item previously studied?",CONTROL,Recog,1::2,2167,YES,25,-1,-1,0,0,,,1
6401000aab3cfc2606de05d1,cct4vsv45k,"Mediated Recog Prolific",1,127,2023-05-08T22:22:56+00:00,2.632838010788,6,versionC_stim.csv,JOLVersion_Recog.csv,"JOL Recog",JOL3,,ACCIDENT,RECOG,CONTROL,90,94,Likert,User,1,"Was this item previously studied?",CONTROL,Recog,1::2,2351,NO,20,-1,-1,0,0,,,1
6401000aab3cfc2606de05d1,cct4vsv45k,"Mediated Recog Prolific",1,128,2023-05-08T22:23:04+00:00,8.1071481704712,6,versionC_stim.csv,JOLVersion_Recog.csv,"JOL Recog",JOL3,,SHAKE,RECOG,Presented,139,64,Likert,User,1,"Was this item previously studied?",CONTROL,Recog,1::2,5849,YES,25,-1,-1,0,0,,,0.333
6401000aab3cfc2606de05d1,cct4vsv45k,"Mediated Recog Prolific",1,129,2023-05-08T22:23:07+00:00,2.8553218841553,6,versionC_stim.csv,JOLVersion_Recog.csv,"JOL Recog",JOL3,,BELT,RECOG,Presented,142,140,Likert,User,1,"Was this item previously studied?",PRESENTED,Recog,1::2,2570,YES,28.571428571429,-1,-1,0,0,,,1
6401000aab3cfc2606de05d1,cct4vsv45k,"Mediated Recog Prolific",1,130,2023-05-08T22:23:10+00:00,2.8714370727539,6,versionC_stim.csv,JOLVersion_Recog.csv,"JOL Recog",JOL3,,BUG,RECOG,CONTROL,85,131,Likert,User,1,"Was this item previously studied?",PRESENTED,Recog,1::2,2590,NO,0,-1,-1,0,0,,,1
6401000aab3cfc2606de05d1,cct4vsv45k,"Mediated Recog Prolific",1,131,2023-05-08T22:23:11+00:00,1.8779389858246,6,versionC_stim.csv,JOLVersion_Recog.csv,"JOL Recog",JOL3,,FISH,RECOG,Presented,131,81,Likert,User,1,"Was this item previously studied?",CONTROL,Recog,1::2,1600,YES,28.571428571429,-1,-1,0,0,,,1
6401000aab3cfc2606de05d1,cct4vsv45k,"Mediated Recog Prolific",1,132,2023-05-08T22:23:18+00:00,6.4223129749298,6,versionC_stim.csv,JOLVersion_Recog.csv,"JOL Recog",JOL3,,SEED,RECOG,CONTROL,65,141,Likert,User,1,"Was this item previously studied?",PRESENTED,Recog,1::2,6129,NO,0,-1,-1,0,0,,,0.419
6401000aab3cfc2606de05d1,cct4vsv45k,"Mediated Recog Prolific",1,133,2023-05-08T22:23:20+00:00,1.9268801212311,6,versionC_stim.csv,JOLVersion_Recog.csv,"JOL Recog",JOL3,,PIE,RECOG,Presented,105,123,Likert,User,1,"Was this item previously studied?",PRESENTED,Recog,1::2,1624,YES,33.333333333333,-1,-1,0,0,,,1
6401000aab3cfc2606de05d1,cct4vsv45k,"Mediated Recog Prolific",1,134,2023-05-08T22:23:21+00:00,1.573184967041,6,versionC_stim.csv,JOLVersion_Recog.csv,"JOL Recog",JOL3,,DRINK,RECOG,CONTROL,63,136,Likert,User,1,"Was this item previously studied?",PRESENTED,Recog,1::2,1270,YES,0,-1,-1,0,0,,,1
6401000aab3cfc2606de05d1,cct4vsv45k,"Mediated Recog Prolific",1,135,2023-05-08T22:23:29+00:00,7.4499199390411,6,versionC_stim.csv,JOLVersion_Recog.csv,"JOL Recog",JOL3,,HORN,RECOG,CONTROL,94,74,Likert,User,1,"Was this item previously studied?",CONTROL,Recog,1::2,5986,NO,33.333333333333,-1,-1,0,0,,,0.367
6401000aab3cfc2606de05d1,cct4vsv45k,"Mediated Recog Prolific",1,136,2023-05-08T22:23:36+00:00,6.8544569015503,6,versionC_stim.csv,JOLVersion_Recog.csv,"JOL Recog",JOL3,,BASKET,RECOG,CONTROL,67,89,Likert,User,1,"Was this item previously studied?",CONTROL,Recog,1::2,6533,NO,0,-1,-1,0,0,,,0.424
6401000aab3cfc2606de05d1,cct4vsv45k,"Mediated Recog Prolific",1,137,2023-05-08T22:23:39+00:00,3.0556981563568,6,versionC_stim.csv,JOLVersion_Recog.csv,"JOL Recog",JOL3,,ROD,RECOG,Presented,141,62,Likert,User,1,"Was this item previously studied?",CONTROL,Recog,1::2,2746,YES,0,-1,-1,0,0,,,1
6401000aab3cfc2606de05d1,cct4vsv45k,"Mediated Recog Prolific",1,138,2023-05-08T22:23:45+00:00,6.4284729957581,6,versionC_stim.csv,JOLVersion_Recog.csv,"JOL Recog",JOL3,,DRINK,RECOG,Presented,128,134,Likert,User,1,"Was this item previously studied?",PRESENTED,Recog,1::2,6120,YES,0,-1,-1,0,0,,,0.323
6401000aab3cfc2606de05d1,cct4vsv45k,"Mediated Recog Prolific",1,139,2023-05-08T22:23:47+00:00,2.0777568817139,6,versionC_stim.csv,JOLVersion_Recog.csv,"JOL Recog",JOL3,,DONKEY,RECOG,Presented,120,116,Likert,User,1,"Was this item previously studied?",PRESENTED,Recog,1::2,1775,YES,22.222222222222,-1,-1,0,0,,,1
6401000aab3cfc2606de05d1,cct4vsv45k,"Mediated Recog Prolific",1,140,2023-05-08T22:23:58+00:00,10.622044086456,6,versionC_stim.csv,JOLVersion_Recog.csv,"JOL Recog",JOL3,,KEYS,RECOG,Presented,137,80,Likert,User,1,"Was this item previously studied?",CONTROL,Recog,1::2,10328,NO,0,-1,-1,0,0,,,0.558
6401000aab3cfc2606de05d1,cct4vsv45k,"Mediated Recog Prolific",1,141,2023-05-08T22:24:00+00:00,2.3999559879303,6,versionC_stim.csv,JOLVersion_Recog.csv,"JOL Recog",JOL3,,HAMMER,RECOG,CONTROL,74,146,Likert,User,1,"Was this item previously studied?",PRESENTED,Recog,1::2,2111,NO,0,-1,-1,0,0,,,1
6401000aab3cfc2606de05d1,cct4vsv45k,"Mediated Recog Prolific",1,142,2023-05-08T22:24:09+00:00,8.6995570659637,6,versionC_stim.csv,JOLVersion_Recog.csv,"JOL Recog",JOL3,,WATER,RECOG,CONTROL,86,86,Likert,User,1,"Was this item previously studied?",CONTROL,Recog,1::2,6508,NO,0,-1,-1,0,0,,,0.424
6401000aab3cfc2606de05d1,cct4vsv45k,"Mediated Recog Prolific",1,143,2023-05-08T22:24:11+00:00,2.3405249118805,6,versionC_stim.csv,JOLVersion_Recog.csv,"JOL Recog",JOL3,,OUNCE,RECOG,CONTROL,98,90,Likert,User,1,"Was this item previously studied?",CONTROL,Recog,1::2,1764,NO,28.571428571429,-1,-1,0,0,,,1
6401000aab3cfc2606de05d1,cct4vsv45k,"Mediated Recog Prolific",1,144,2023-05-08T22:24:18+00:00,6.1640050411224,6,versionC_stim.csv,JOLVersion_Recog.csv,"JOL Recog",JOL3,,BOTTLE,RECOG,Presented,112,118,Likert,User,1,"Was this item previously studied?",PRESENTED,Recog,1::2,5872,YES,22.222222222222,-1,-1,0,0,,,0.367
6401000aab3cfc2606de05d1,cct4vsv45k,"Mediated Recog Prolific",1,145,2023-05-08T22:24:25+00:00,7.3341019153595,6,versionC_stim.csv,JOLVersion_Recog.csv,"JOL Recog",JOL3,,FLOWER,RECOG,Presented,130,98,Likert,User,1,"Was this item previously studied?",CONTROL,Recog,1::2,7044,NO,25,-1,-1,0,0,,,0.361
6401000aab3cfc2606de05d1,cct4vsv45k,"Mediated Recog Prolific",1,146,2023-05-08T22:24:27+00:00,1.9392559528351,6,versionC_stim.csv,JOLVersion_Recog.csv,"JOL Recog",JOL3,,FIRE,RECOG,CONTROL,77,93,Likert,User,1,"Was this item previously studied?",CONTROL,Recog,1::2,1648,NO,0,-1,-1,0,0,,,1
6401000aab3cfc2606de05d1,cct4vsv45k,"Mediated Recog Prolific",1,147,2023-05-08T22:24:29+00:00,1.7455811500549,6,versionC_stim.csv,JOLVersion_Recog.csv,"JOL Recog",JOL3,,PEAK,RECOG,CONTROL,69,92,Likert,User,1,"Was this item previously studied?",CONTROL,Recog,1::2,1453,NO,0,-1,-1,0,0,,,1
6401000aab3cfc2606de05d1,cct4vsv45k,"Mediated Recog Prolific",1,148,2023-05-08T22:24:34+00:00,5.6087579727173,6,versionC_stim.csv,JOLVersion_Recog.csv,"JOL Recog",JOL3,,CAVE,RECOG,CONTROL,66,82,Likert,User,1,"Was this item previously studied?",CONTROL,Recog,1::2,5309,NO,0,-1,-1,0,0,,,0.333
6401000aab3cfc2606de05d1,cct4vsv45k,"Mediated Recog Prolific",1,149,2023-05-08T22:24:41+00:00,6.6083970069885,6,versionC_stim.csv,JOLVersion_Recog.csv,"JOL Recog",JOL3,,HAIR,RECOG,Presented,115,77,Likert,User,1,"Was this item previously studied?",CONTROL,Recog,1::2,6299,YES,0,-1,-1,0,0,,,0.313
6401000aab3cfc2606de05d1,cct4vsv45k,"Mediated Recog Prolific",1,150,2023-05-08T22:24:47+00:00,6.2685389518738,6,versionC_stim.csv,JOLVersion_Recog.csv,"JOL Recog",JOL3,,SMELL,RECOG,CONTROL,61,120,Likert,User,1,"Was this item previously studied?",PRESENTED,Recog,1::2,5962,NO,0,-1,-1,0,0,,,0.4
6401000aab3cfc2606de05d1,cct4vsv45k,"Mediated Recog Prolific",1,151,2023-05-08T22:24:54+00:00,6.536180973053,6,versionC_stim.csv,JOLVersion_Recog.csv,"JOL Recog",JOL3,,STEAK,RECOG,Presented,134,100,Likert,User,1,"Was this item previously studied?",CONTROL,Recog,1::2,6235,YES,25,-1,-1,0,0,,,0.406
6401000aab3cfc2606de05d1,cct4vsv45k,"Mediated Recog Prolific",1,152,2023-05-08T22:25:01+00:00,7.356348991394,6,versionC_stim.csv,JOLVersion_Recog.csv,"JOL Recog",JOL3,,SLEEP,RECOG,Presented,125,68,Likert,User,1,"Was this item previously studied?",CONTROL,Recog,1::2,7059,YES,25,-1,-1,0,0,,,0.361
6401000aab3cfc2606de05d1,cct4vsv45k,"Mediated Recog Prolific",1,153,2023-05-08T22:25:03+00:00,1.822026014328,6,versionC_stim.csv,JOLVersion_Recog.csv,"JOL Recog",JOL3,,CARPET,RECOG,Presented,111,78,Likert,User,1,"Was this item previously studied?",CONTROL,Recog,1::2,1477,YES,22.222222222222,-1,-1,0,0,,,1
6401000aab3cfc2606de05d1,cct4vsv45k,"Mediated Recog Prolific",1,154,2023-05-08T22:25:04+00:00,1.7403869628906,6,versionC_stim.csv,JOLVersion_Recog.csv,"JOL Recog",JOL3,,,,,,0,Instruct,User,-,"You have completed this section. Please press Enter.",,Instruct7,,1424,,,-1,-1,,,,,1
6401000aab3cfc2606de05d1,cct4vsv45k,"Mediated Recog Prolific",1,155,2023-05-08T22:25:07+00:00,2.1643741130829,6,versionC_stim.csv,JOLVersion_Recog.csv,"JOL Recog",JOL3,,,,,,0,Instruct,User,-,"The following screen will ask you a few questions abour your experience today. You must complete these questions to receive credit.",,Instruct8,,1872,,,-1,-1,,,,,1
