Username,ID,ExperimentName,Session,Trial,Date,TimeDif,"Condition Number","Stimuli File","Order File","Condition Description","Condition Notes",Stimuli*Cue,Stimuli*Answer,Stimuli*Shuffle,"Stimuli*Stimuli Notes",Stimuli*Value,Procedure*Item,"Procedure*Trial Type","Procedure*Max Time","Procedure*Min Time",Procedure*Text,"Procedure*Procedure Notes",Procedure*Shuffle,Response*RT,Response*Response,Response*Accuracy,Response*RTfirst,Response*RTlast,Response*strictAcc,Response*lenientAcc,Response*focus,Response*Focus
5a78b8355292b800012284ca,ryrhbsip65,"Mediated Recall_Prolific",1,1,2023-02-05T23:49:14+00:00,6.1218168735504,3,versionB_stim.csv,ReadVersion.csv,Read,Read2,,,,,,0,Instruct,-,5,"In this section, you will be presented with a series of word pairs. Please study each word pair! Your memory will be tested!",Initial_Instruct,Instruct1,5944,,,-1,-1,,,,1
5a78b8355292b800012284ca,ryrhbsip65,"Mediated Recall_Prolific",1,2,2023-02-05T23:49:17+00:00,3.3454389572144,3,versionB_stim.csv,ReadVersion.csv,Read,Read2,,,,,,0,Instruct,User,-,"You will now begin. Press Enter when you are ready to begin.",,Instruct16,3090,,,-1,-1,,,,1
5a78b8355292b800012284ca,ryrhbsip65,"Mediated Recall_Prolific",1,3,2023-02-05T23:49:22+00:00,4.9352810382843,3,versionB_stim.csv,ReadVersion.csv,Read,Read2,DAYS,WEAKS,BUFFER3,Buffer,1,4,Study,User,-,,Study/JOL,BUFFER,4682,,,-1,-1,,,,1
5a78b8355292b800012284ca,ryrhbsip65,"Mediated Recall_Prolific",1,4,2023-02-05T23:49:25+00:00,2.7708730697632,3,versionB_stim.csv,ReadVersion.csv,Read,Read2,OCTOBER,SPOOKY,BUFFER3,Buffer,5,3,Study,User,-,,Study/JOL,BUFFER,2521,,,-1,-1,,,,1
5a78b8355292b800012284ca,ryrhbsip65,"Mediated Recall_Prolific",1,5,2023-02-05T23:49:28+00:00,2.7165238857269,3,versionB_stim.csv,ReadVersion.csv,Read,Read2,MONTH,YEAR,BUFFER3,Buffer,2,6,Study,User,-,,Study/JOL,BUFFER,2454,,,-1,-1,,,,1
5a78b8355292b800012284ca,ryrhbsip65,"Mediated Recall_Prolific",1,6,2023-02-05T23:49:30+00:00,2.3153982162476,3,versionB_stim.csv,ReadVersion.csv,Read,Read2,SPRING,MARCH,BUFFER3,Buffer,4,2,Study,User,-,,Study/JOL,BUFFER,2061,,,-1,-1,,,,1
5a78b8355292b800012284ca,ryrhbsip65,"Mediated Recall_Prolific",1,7,2023-02-05T23:49:33+00:00,3.232115983963,3,versionB_stim.csv,ReadVersion.csv,Read,Read2,TOOL,SHED,BUFFER3,Buffer,3,5,Study,User,-,,Study/JOL,BUFFER,2980,,,-1,-1,,,,1
5a78b8355292b800012284ca,ryrhbsip65,"Mediated Recall_Prolific",1,8,2023-02-05T23:49:36+00:00,3.1622400283813,3,versionB_stim.csv,ReadVersion.csv,Read,Read2,SUMMER,SNOW,Study2,M,6,24,Study,User,-,,Study/JOL,"Study Phase",2918,,,-1,-1,,,,1
5a78b8355292b800012284ca,ryrhbsip65,"Mediated Recall_Prolific",1,9,2023-02-05T23:49:39+00:00,2.615868806839,3,versionB_stim.csv,ReadVersion.csv,Read,Read2,NURSE,LAWYER,Study2,M,11,30,Study,User,-,,Study/JOL,"Study Phase",2362,,,-1,-1,,,,1
5a78b8355292b800012284ca,ryrhbsip65,"Mediated Recall_Prolific",1,10,2023-02-05T23:49:42+00:00,2.669694185257,3,versionB_stim.csv,ReadVersion.csv,Read,Read2,CACTUS,PLANT,Study2,F,21,13,Study,User,-,,Study/JOL,"Study Phase",2423,,,-1,-1,,,,1
5a78b8355292b800012284ca,ryrhbsip65,"Mediated Recall_Prolific",1,11,2023-02-05T23:49:44+00:00,2.3859479427338,3,versionB_stim.csv,ReadVersion.csv,Read,Read2,MIRROR,CHILDREN,Study2,U,49,45,Study,User,-,,Study/JOL,"Study Phase",2136,,,-1,-1,,,,1
5a78b8355292b800012284ca,ryrhbsip65,"Mediated Recall_Prolific",1,12,2023-02-05T23:49:47+00:00,2.6160950660706,3,versionB_stim.csv,ReadVersion.csv,Read,Read2,CHISEL,HAMMER,Study2,F,23,22,Study,User,-,,Study/JOL,"Study Phase",2366,,,-1,-1,,,,1
5a78b8355292b800012284ca,ryrhbsip65,"Mediated Recall_Prolific",1,13,2023-02-05T23:49:49+00:00,2.5338628292084,3,versionB_stim.csv,ReadVersion.csv,Read,Read2,BRIDGE,WATER,Study2,F,35,23,Study,User,-,,Study/JOL,"Study Phase",2282,,,-1,-1,,,,1
5a78b8355292b800012284ca,ryrhbsip65,"Mediated Recall_Prolific",1,14,2023-02-05T23:49:51+00:00,2.1988260746002,3,versionB_stim.csv,ReadVersion.csv,Read,Read2,LEAGUE,BASEBALL,Study2,F,29,47,Study,User,-,,Study/JOL,"Study Phase",1953,,,-1,-1,,,,1
5a78b8355292b800012284ca,ryrhbsip65,"Mediated Recall_Prolific",1,15,2023-02-05T23:49:54+00:00,2.3352119922638,3,versionB_stim.csv,ReadVersion.csv,Read,Read2,CHILL,COLD,Study2,F,32,33,Study,User,-,,Study/JOL,"Study Phase",2082,,,-1,-1,,,,1
5a78b8355292b800012284ca,ryrhbsip65,"Mediated Recall_Prolific",1,16,2023-02-05T23:49:56+00:00,2.392019033432,3,versionB_stim.csv,ReadVersion.csv,Read,Read2,DIETARY,SACK,Study2,U,42,14,Study,User,-,,Study/JOL,"Study Phase",2156,,,-1,-1,,,,1
5a78b8355292b800012284ca,ryrhbsip65,"Mediated Recall_Prolific",1,17,2023-02-05T23:49:59+00:00,2.534059047699,3,versionB_stim.csv,ReadVersion.csv,Read,Read2,SICK,HIDE,Study2,U,45,11,Study,User,-,,Study/JOL,"Study Phase",2292,,,-1,-1,,,,1
5a78b8355292b800012284ca,ryrhbsip65,"Mediated Recall_Prolific",1,18,2023-02-05T23:50:02+00:00,3.0915939807892,3,versionB_stim.csv,ReadVersion.csv,Read,Read2,ARTERY,BRONZE,Study2,U,48,38,Study,User,-,,Study/JOL,"Study Phase",2839,,,-1,-1,,,,1
5a78b8355292b800012284ca,ryrhbsip65,"Mediated Recall_Prolific",1,19,2023-02-05T23:50:04+00:00,2.4252259731293,3,versionB_stim.csv,ReadVersion.csv,Read,Read2,OVEN,BASKET,Study2,M,16,29,Study,User,-,,Study/JOL,"Study Phase",2176,,,-1,-1,,,,1
5a78b8355292b800012284ca,ryrhbsip65,"Mediated Recall_Prolific",1,20,2023-02-05T23:50:07+00:00,2.7080278396606,3,versionB_stim.csv,ReadVersion.csv,Read,Read2,RAZOR,MUSCLE,Study2,M,20,18,Study,User,-,,Study/JOL,"Study Phase",2449,,,-1,-1,,,,1
5a78b8355292b800012284ca,ryrhbsip65,"Mediated Recall_Prolific",1,21,2023-02-05T23:50:09+00:00,2.429573059082,3,versionB_stim.csv,ReadVersion.csv,Read,Read2,ATTIRE,CLOTHES,Study2,F,24,31,Study,User,-,,Study/JOL,"Study Phase",2176,,,-1,-1,,,,1
5a78b8355292b800012284ca,ryrhbsip65,"Mediated Recall_Prolific",1,22,2023-02-05T23:50:12+00:00,2.4244639873505,3,versionB_stim.csv,ReadVersion.csv,Read,Read2,DEATH,BUSINESS,Study2,U,44,20,Study,User,-,,Study/JOL,"Study Phase",2157,,,-1,-1,,,,1
5a78b8355292b800012284ca,ryrhbsip65,"Mediated Recall_Prolific",1,23,2023-02-05T23:50:14+00:00,2.4054870605469,3,versionB_stim.csv,ReadVersion.csv,Read,Read2,ART,WOLF,Study2,U,38,7,Study,User,-,,Study/JOL,"Study Phase",2157,,,-1,-1,,,,1
5a78b8355292b800012284ca,ryrhbsip65,"Mediated Recall_Prolific",1,24,2023-02-05T23:50:17+00:00,2.5579009056091,3,versionB_stim.csv,ReadVersion.csv,Read,Read2,RAKE,SEED,Study2,M,14,43,Study,User,-,,Study/JOL,"Study Phase",2318,,,-1,-1,,,,1
5a78b8355292b800012284ca,ryrhbsip65,"Mediated Recall_Prolific",1,25,2023-02-05T23:50:20+00:00,2.9338011741638,3,versionB_stim.csv,ReadVersion.csv,Read,Read2,CASH,LEG,Study2,U,50,8,Study,User,-,,Study/JOL,"Study Phase",2680,,,-1,-1,,,,1
5a78b8355292b800012284ca,ryrhbsip65,"Mediated Recall_Prolific",1,26,2023-02-05T23:50:22+00:00,2.5820579528809,3,versionB_stim.csv,ReadVersion.csv,Read,Read2,CHOP,CUT,Study2,F,22,42,Study,User,-,,Study/JOL,"Study Phase",2328,,,-1,-1,,,,1
5a78b8355292b800012284ca,ryrhbsip65,"Mediated Recall_Prolific",1,27,2023-02-05T23:50:25+00:00,2.8500239849091,3,versionB_stim.csv,ReadVersion.csv,Read,Read2,INCENSE,SMELL,Study2,F,28,12,Study,User,-,,Study/JOL,"Study Phase",2594,,,-1,-1,,,,1
5a78b8355292b800012284ca,ryrhbsip65,"Mediated Recall_Prolific",1,28,2023-02-05T23:50:28+00:00,2.4500110149384,3,versionB_stim.csv,ReadVersion.csv,Read,Read2,HERD,COW,Study2,F,33,50,Study,User,-,,Study/JOL,"Study Phase",2191,,,-1,-1,,,,1
5a78b8355292b800012284ca,ryrhbsip65,"Mediated Recall_Prolific",1,29,2023-02-05T23:50:30+00:00,2.5984079837799,3,versionB_stim.csv,ReadVersion.csv,Read,Read2,EYES,SMELL,Study2,M,10,32,Study,User,-,,Study/JOL,"Study Phase",2347,,,-1,-1,,,,1
5a78b8355292b800012284ca,ryrhbsip65,"Mediated Recall_Prolific",1,30,2023-02-05T23:50:31+00:00,0.60157108306885,3,versionB_stim.csv,ReadVersion.csv,Read,Read2,BENCH,HORN,Study2,U,43,26,Study,User,-,,Study/JOL,"Study Phase",352,,,-1,-1,,,,1
5a78b8355292b800012284ca,ryrhbsip65,"Mediated Recall_Prolific",1,31,2023-02-05T23:50:34+00:00,3.2519679069519,3,versionB_stim.csv,ReadVersion.csv,Read,Read2,REALITY,ISLAND,Study2,M,9,36,Study,User,-,,Study/JOL,"Study Phase",2991,,,-1,-1,,,,1
5a78b8355292b800012284ca,ryrhbsip65,"Mediated Recall_Prolific",1,32,2023-02-05T23:50:37+00:00,3.0379409790039,3,versionB_stim.csv,ReadVersion.csv,Read,Read2,STRONG,ACCIDENT,Study2,U,39,51,Study,User,-,,Study/JOL,"Study Phase",2796,,,-1,-1,,,,1
5a78b8355292b800012284ca,ryrhbsip65,"Mediated Recall_Prolific",1,33,2023-02-05T23:50:40+00:00,2.6239609718323,3,versionB_stim.csv,ReadVersion.csv,Read,Read2,CHERRY,RED,Study2,F,25,21,Study,User,-,,Study/JOL,"Study Phase",2376,,,-1,-1,,,,1
5a78b8355292b800012284ca,ryrhbsip65,"Mediated Recall_Prolific",1,34,2023-02-05T23:50:42+00:00,2.5619790554047,3,versionB_stim.csv,ReadVersion.csv,Read,Read2,PUSH,CLUTTER,Study2,U,41,34,Study,User,-,,Study/JOL,"Study Phase",2315,,,-1,-1,,,,1
5a78b8355292b800012284ca,ryrhbsip65,"Mediated Recall_Prolific",1,35,2023-02-05T23:50:45+00:00,2.6571509838104,3,versionB_stim.csv,ReadVersion.csv,Read,Read2,HORNET,STING,Study2,F,30,28,Study,User,-,,Study/JOL,"Study Phase",2405,,,-1,-1,,,,1
5a78b8355292b800012284ca,ryrhbsip65,"Mediated Recall_Prolific",1,36,2023-02-05T23:50:47+00:00,2.4917819499969,3,versionB_stim.csv,ReadVersion.csv,Read,Read2,HEAVY,FEATHER,Study2,M,13,9,Study,User,-,,Study/JOL,"Study Phase",2241,,,-1,-1,,,,1
5a78b8355292b800012284ca,ryrhbsip65,"Mediated Recall_Prolific",1,37,2023-02-05T23:50:50+00:00,2.3830060958862,3,versionB_stim.csv,ReadVersion.csv,Read,Read2,SUGAR,RIDDLE,Study2,U,40,49,Study,User,-,,Study/JOL,"Study Phase",2133,,,-1,-1,,,,1
5a78b8355292b800012284ca,ryrhbsip65,"Mediated Recall_Prolific",1,38,2023-02-05T23:50:52+00:00,2.5519609451294,3,versionB_stim.csv,ReadVersion.csv,Read,Read2,VALLEY,PEAK,Study2,M,18,48,Study,User,-,,Study/JOL,"Study Phase",2303,,,-1,-1,,,,1
5a78b8355292b800012284ca,ryrhbsip65,"Mediated Recall_Prolific",1,39,2023-02-05T23:50:55+00:00,2.6401491165161,3,versionB_stim.csv,ReadVersion.csv,Read,Read2,SCHOOL,STOP,Study2,M,7,39,Study,User,-,,Study/JOL,"Study Phase",2389,,,-1,-1,,,,1
5a78b8355292b800012284ca,ryrhbsip65,"Mediated Recall_Prolific",1,40,2023-02-05T23:50:58+00:00,2.6137588024139,3,versionB_stim.csv,ReadVersion.csv,Read,Read2,DOCUMENT,PAPER,Study2,F,27,27,Study,User,-,,Study/JOL,"Study Phase",2363,,,-1,-1,,,,1
5a78b8355292b800012284ca,ryrhbsip65,"Mediated Recall_Prolific",1,41,2023-02-05T23:51:00+00:00,2.3899481296539,3,versionB_stim.csv,ReadVersion.csv,Read,Read2,BLAZE,FIRE,Study2,F,26,15,Study,User,-,,Study/JOL,"Study Phase",2135,,,-1,-1,,,,1
5a78b8355292b800012284ca,ryrhbsip65,"Mediated Recall_Prolific",1,42,2023-02-05T23:51:03+00:00,2.6221680641174,3,versionB_stim.csv,ReadVersion.csv,Read,Read2,HAPPY,CAR,Study2,U,37,10,Study,User,-,,Study/JOL,"Study Phase",2373,,,-1,-1,,,,1
5a78b8355292b800012284ca,ryrhbsip65,"Mediated Recall_Prolific",1,43,2023-02-05T23:51:05+00:00,2.5243339538574,3,versionB_stim.csv,ReadVersion.csv,Read,Read2,WINDOW,KNOB,Study2,M,19,25,Study,User,-,,Study/JOL,"Study Phase",2271,,,-1,-1,,,,1
5a78b8355292b800012284ca,ryrhbsip65,"Mediated Recall_Prolific",1,44,2023-02-05T23:51:08+00:00,2.5978858470917,3,versionB_stim.csv,ReadVersion.csv,Read,Read2,SOAP,DRINK,Study2,M,12,17,Study,User,-,,Study/JOL,"Study Phase",2349,,,-1,-1,,,,1
5a78b8355292b800012284ca,ryrhbsip65,"Mediated Recall_Prolific",1,45,2023-02-05T23:51:10+00:00,2.6362791061401,3,versionB_stim.csv,ReadVersion.csv,Read,Read2,PANTS,COLLAR,Study2,M,8,40,Study,User,-,,Study/JOL,"Study Phase",2383,,,-1,-1,,,,1
5a78b8355292b800012284ca,ryrhbsip65,"Mediated Recall_Prolific",1,46,2023-02-05T23:51:12+00:00,1.8935189247131,3,versionB_stim.csv,ReadVersion.csv,Read,Read2,FEUD,FIGHT,Study2,F,31,35,Study,User,-,,Study/JOL,"Study Phase",1646,,,-1,-1,,,,1
5a78b8355292b800012284ca,ryrhbsip65,"Mediated Recall_Prolific",1,47,2023-02-05T23:51:15+00:00,2.4042611122131,3,versionB_stim.csv,ReadVersion.csv,Read,Read2,KING,VASE,Study2,U,36,16,Study,User,-,,Study/JOL,"Study Phase",2147,,,-1,-1,,,,1
5a78b8355292b800012284ca,ryrhbsip65,"Mediated Recall_Prolific",1,48,2023-02-05T23:51:17+00:00,2.1838459968567,3,versionB_stim.csv,ReadVersion.csv,Read,Read2,TRAP,CAVE,Study2,M,15,46,Study,User,-,,Study/JOL,"Study Phase",1929,,,-1,-1,,,,1
5a78b8355292b800012284ca,ryrhbsip65,"Mediated Recall_Prolific",1,49,2023-02-05T23:51:19+00:00,2.3661298751831,3,versionB_stim.csv,ReadVersion.csv,Read,Read2,BOTH,OUNCE,Study2,U,47,41,Study,User,-,,Study/JOL,"Study Phase",2112,,,-1,-1,,,,1
5a78b8355292b800012284ca,ryrhbsip65,"Mediated Recall_Prolific",1,50,2023-02-05T23:51:21+00:00,2.1757411956787,3,versionB_stim.csv,ReadVersion.csv,Read,Read2,LEASE,TOIL,Study2,U,46,19,Study,User,-,,Study/JOL,"Study Phase",1932,,,-1,-1,,,,1
5a78b8355292b800012284ca,ryrhbsip65,"Mediated Recall_Prolific",1,51,2023-02-05T23:51:24+00:00,2.58549284935,3,versionB_stim.csv,ReadVersion.csv,Read,Read2,WASP,BUG,Study2,F,34,37,Study,User,-,,Study/JOL,"Study Phase",2339,,,-1,-1,,,,1
5a78b8355292b800012284ca,ryrhbsip65,"Mediated Recall_Prolific",1,52,2023-02-05T23:51:26+00:00,2.2168221473694,3,versionB_stim.csv,ReadVersion.csv,Read,Read2,GRILL,THIGH,Study2,M,17,44,Study,User,-,,Study/JOL,"Study Phase",1937,,,-1,-1,,,,1
5a78b8355292b800012284ca,ryrhbsip65,"Mediated Recall_Prolific",1,53,2023-02-05T23:51:29+00:00,2.3743498325348,3,versionB_stim.csv,ReadVersion.csv,Read,Read2,PEANUT,BUTTER,BUFFER1,Buffer,58,60,Study,User,-,,Study/JOL,BUFFER2,2115,,,-1,-1,,,,1
5a78b8355292b800012284ca,ryrhbsip65,"Mediated Recall_Prolific",1,54,2023-02-05T23:51:31+00:00,2.3135600090027,3,versionB_stim.csv,ReadVersion.csv,Read,Read2,TREES,GREEN,BUFFER1,Buffer,56,61,Study,User,-,,Study/JOL,BUFFER2,2062,,,-1,-1,,,,1
5a78b8355292b800012284ca,ryrhbsip65,"Mediated Recall_Prolific",1,55,2023-02-05T23:51:33+00:00,2.2098281383514,3,versionB_stim.csv,ReadVersion.csv,Read,Read2,NOODLE,STRING,BUFFER4,Buffer,52,55,Study,User,-,,Study/JOL,BUFFER2,1964,,,-1,-1,,,,1
5a78b8355292b800012284ca,ryrhbsip65,"Mediated Recall_Prolific",1,56,2023-02-05T23:51:35+00:00,2.208153963089,3,versionB_stim.csv,ReadVersion.csv,Read,Read2,MOON,SPACE,BUFFER2,Buffer,109,108,Study,User,-,,Study/JOL,BUFFER2,1952,,,-1,-1,,,,1
5a78b8355292b800012284ca,ryrhbsip65,"Mediated Recall_Prolific",1,57,2023-02-05T23:51:38+00:00,2.1923730373383,3,versionB_stim.csv,ReadVersion.csv,Read,Read2,SCARE,FRIGHT,BUFFER1,Buffer,59,59,Study,User,-,,Study/JOL,BUFFER2,1950,,,-1,-1,,,,1
5a78b8355292b800012284ca,ryrhbsip65,"Mediated Recall_Prolific",1,58,2023-02-05T23:51:39+00:00,1.8654849529266,3,versionB_stim.csv,ReadVersion.csv,Read,Read2,,,,,,0,Instruct,User,-,"You have completed this section. Please press Enter.",Filler_Instruction,Instruct2,1620,,,-1,-1,,,,1
5a78b8355292b800012284ca,ryrhbsip65,"Mediated Recall_Prolific",1,59,2023-02-05T23:53:40+00:00,120.39631986618,3,versionB_stim.csv,ReadVersion.csv,Read,Read2,,,,,,0,FreeRecall,120,120,"Please list the 50 US states in alphabetical order. The task will automatically advance to the next screen after two minutes.",,Filler1,120011,"Alabama, Alaska, Arkansas, California, Colorado, Delaware, Florida, Georgia, Idaho, Illinois, Iowa, Kentucky, Louisiana, Maine, Massachusetts, Ohio,",0,9301,119725,0,0,,1
5a78b8355292b800012284ca,ryrhbsip65,"Mediated Recall_Prolific",1,60,2023-02-05T23:53:52+00:00,12.261589050293,3,versionB_stim.csv,ReadVersion.csv,Read,Read2,,,,,,0,Instruct,-,10,"You will now be presented with the first word from each of the previously studied item pairs. Please type the missing word. If you do not know the word, you may guess or press Enter to skip forward to the next pair.",,Instruct3,12003,,,-1,-1,,,,1
5a78b8355292b800012284ca,ryrhbsip65,"Mediated Recall_Prolific",1,61,2023-02-05T23:53:59+00:00,6.9022469520569,3,versionB_stim.csv,ReadVersion.csv,Read,Read2,OVEN,BASKET,Study2,M,16,29,Test,User,-,,Recall,Recall1,6644,green,18.181818181818,4503,5241,0,0,,1
5a78b8355292b800012284ca,ryrhbsip65,"Mediated Recall_Prolific",1,62,2023-02-05T23:54:05+00:00,5.712975025177,3,versionB_stim.csv,ReadVersion.csv,Read,Read2,CHISEL,HAMMER,Study2,F,23,22,Test,User,-,,Recall,Recall1,5459,hammer,100,3601,4210,1,1,,1
5a78b8355292b800012284ca,ryrhbsip65,"Mediated Recall_Prolific",1,63,2023-02-05T23:54:09+00:00,4.6480281352997,3,versionB_stim.csv,ReadVersion.csv,Read,Read2,CHERRY,RED,Study2,F,25,21,Test,User,-,,Recall,Recall1,4392,fruit,25,2360,4154,0,0,,1
5a78b8355292b800012284ca,ryrhbsip65,"Mediated Recall_Prolific",1,64,2023-02-05T23:54:12+00:00,2.780818939209,3,versionB_stim.csv,ReadVersion.csv,Read,Read2,NURSE,LAWYER,Study2,M,11,30,Test,User,-,,Recall,Recall1,2525,lawyer,100,1504,2247,1,1,,1
5a78b8355292b800012284ca,ryrhbsip65,"Mediated Recall_Prolific",1,65,2023-02-05T23:54:18+00:00,6.2456710338593,3,versionB_stim.csv,ReadVersion.csv,Read,Read2,HEAVY,FEATHER,Study2,M,13,9,Test,User,-,,Recall,Recall1,5991,lift,36.363636363636,3175,5732,0,0,,1
5a78b8355292b800012284ca,ryrhbsip65,"Mediated Recall_Prolific",1,66,2023-02-05T23:54:21+00:00,2.7589709758759,3,versionB_stim.csv,ReadVersion.csv,Read,Read2,ARTERY,BRONZE,Study2,U,48,38,Test,User,-,,Recall,Recall1,2507,vein,20,1445,2040,0,0,,1
5a78b8355292b800012284ca,ryrhbsip65,"Mediated Recall_Prolific",1,67,2023-02-05T23:54:23+00:00,2.3044528961182,3,versionB_stim.csv,ReadVersion.csv,Read,Read2,DOCUMENT,PAPER,Study2,F,27,27,Test,User,-,,Recall,Recall1,2045,paper,100,1019,1708,1,1,,1
5a78b8355292b800012284ca,ryrhbsip65,"Mediated Recall_Prolific",1,68,2023-02-05T23:54:26+00:00,2.4472880363464,3,versionB_stim.csv,ReadVersion.csv,Read,Read2,ATTIRE,CLOTHES,Study2,F,24,31,Test,User,-,,Recall,Recall1,2193,clothes,100,1146,1988,1,1,,1
5a78b8355292b800012284ca,ryrhbsip65,"Mediated Recall_Prolific",1,69,2023-02-05T23:54:29+00:00,2.8903181552887,3,versionB_stim.csv,ReadVersion.csv,Read,Read2,FEUD,FIGHT,Study2,F,31,35,Test,User,-,,Recall,Recall1,2633,fight,100,1063,2349,1,1,,1
5a78b8355292b800012284ca,ryrhbsip65,"Mediated Recall_Prolific",1,70,2023-02-05T23:54:32+00:00,2.9874119758606,3,versionB_stim.csv,ReadVersion.csv,Read,Read2,DIETARY,SACK,Study2,U,42,14,Test,User,-,,Recall,Recall1,2738,food,0,2136,2505,0,0,,1
5a78b8355292b800012284ca,ryrhbsip65,"Mediated Recall_Prolific",1,71,2023-02-05T23:54:37+00:00,4.9241449832916,3,versionB_stim.csv,ReadVersion.csv,Read,Read2,BENCH,HORN,Study2,U,43,26,Test,User,-,,Recall,Recall1,4666,baseball,0,2986,4450,0,0,,1
5a78b8355292b800012284ca,ryrhbsip65,"Mediated Recall_Prolific",1,72,2023-02-05T23:54:39+00:00,2.6739389896393,3,versionB_stim.csv,ReadVersion.csv,Read,Read2,INCENSE,SMELL,Study2,F,28,12,Test,User,-,,Recall,Recall1,2410,burn,0,1674,2101,0,0,,1
5a78b8355292b800012284ca,ryrhbsip65,"Mediated Recall_Prolific",1,73,2023-02-05T23:54:44+00:00,4.600282907486,3,versionB_stim.csv,ReadVersion.csv,Read,Read2,EYES,SMELL,Study2,M,10,32,Test,User,-,,Recall,Recall1,4348,mouth,20,2503,4060,0,0,,1
5a78b8355292b800012284ca,ryrhbsip65,"Mediated Recall_Prolific",1,74,2023-02-05T23:54:46+00:00,1.940190076828,3,versionB_stim.csv,ReadVersion.csv,Read,Read2,CHILL,COLD,Study2,F,32,33,Test,User,-,,Recall,Recall1,1676,cold,100,1063,1435,1,1,,1
5a78b8355292b800012284ca,ryrhbsip65,"Mediated Recall_Prolific",1,75,2023-02-05T23:54:48+00:00,2.2576320171356,3,versionB_stim.csv,ReadVersion.csv,Read,Read2,CACTUS,PLANT,Study2,F,21,13,Test,User,-,,Recall,Recall1,2006,plant,100,1004,1713,1,1,,1
5a78b8355292b800012284ca,ryrhbsip65,"Mediated Recall_Prolific",1,76,2023-02-05T23:54:51+00:00,2.8735418319702,3,versionB_stim.csv,ReadVersion.csv,Read,Read2,LEASE,TOIL,Study2,U,46,19,Test,User,-,,Recall,Recall1,2618,car,0,1784,2197,0,0,,1
5a78b8355292b800012284ca,ryrhbsip65,"Mediated Recall_Prolific",1,77,2023-02-05T23:54:57+00:00,5.7745091915131,3,versionB_stim.csv,ReadVersion.csv,Read,Read2,RAKE,SEED,Study2,M,14,43,Test,User,-,,Recall,Recall1,5517,leaves,40,2910,5317,0,0,,1
5a78b8355292b800012284ca,ryrhbsip65,"Mediated Recall_Prolific",1,78,2023-02-05T23:54:59+00:00,2.1996009349823,3,versionB_stim.csv,ReadVersion.csv,Read,Read2,WASP,BUG,Study2,F,34,37,Test,User,-,,Recall,Recall1,1947,bug,100,1220,1548,1,1,,1
5a78b8355292b800012284ca,ryrhbsip65,"Mediated Recall_Prolific",1,79,2023-02-05T23:55:02+00:00,3.43639087677,3,versionB_stim.csv,ReadVersion.csv,Read,Read2,TRAP,CAVE,Study2,M,15,46,Test,User,-,,Recall,Recall1,3180,cave,100,2276,2830,1,1,,1
5a78b8355292b800012284ca,ryrhbsip65,"Mediated Recall_Prolific",1,80,2023-02-05T23:55:06+00:00,3.5233280658722,3,versionB_stim.csv,ReadVersion.csv,Read,Read2,STRONG,ACCIDENT,Study2,U,39,51,Test,User,-,,Recall,Recall1,3263,lift,33.333333333333,2461,3029,0,0,,1
5a78b8355292b800012284ca,ryrhbsip65,"Mediated Recall_Prolific",1,81,2023-02-05T23:55:09+00:00,3.3030979633331,3,versionB_stim.csv,ReadVersion.csv,Read,Read2,DEATH,BUSINESS,Study2,U,44,20,Test,User,-,,Recall,Recall1,3049,business,100,1620,2720,1,1,,1
5a78b8355292b800012284ca,ryrhbsip65,"Mediated Recall_Prolific",1,82,2023-02-05T23:55:12+00:00,3.1325180530548,3,versionB_stim.csv,ReadVersion.csv,Read,Read2,LEAGUE,BASEBALL,Study2,F,29,47,Test,User,-,,Recall,Recall1,2878,baseball,100,1251,2603,1,1,,1
5a78b8355292b800012284ca,ryrhbsip65,"Mediated Recall_Prolific",1,83,2023-02-05T23:55:14+00:00,2.1074340343475,3,versionB_stim.csv,ReadVersion.csv,Read,Read2,HERD,COW,Study2,F,33,50,Test,User,-,,Recall,Recall1,1849,cows,85.714285714286,1141,1638,0,1,,1
5a78b8355292b800012284ca,ryrhbsip65,"Mediated Recall_Prolific",1,84,2023-02-05T23:55:17+00:00,2.7724540233612,3,versionB_stim.csv,ReadVersion.csv,Read,Read2,BOTH,OUNCE,Study2,U,47,41,Test,User,-,,Recall,Recall1,2519,together,30.769230769231,1476,2238,0,0,,1
5a78b8355292b800012284ca,ryrhbsip65,"Mediated Recall_Prolific",1,85,2023-02-05T23:55:21+00:00,3.3629908561707,3,versionB_stim.csv,ReadVersion.csv,Read,Read2,CHOP,CUT,Study2,F,22,42,Test,User,-,,Recall,Recall1,3113,steak,25,2174,2798,0,0,,1
5a78b8355292b800012284ca,ryrhbsip65,"Mediated Recall_Prolific",1,86,2023-02-05T23:55:23+00:00,2.6555600166321,3,versionB_stim.csv,ReadVersion.csv,Read,Read2,REALITY,ISLAND,Study2,M,9,36,Test,User,-,,Recall,Recall1,2397,show,20,1622,2150,0,0,,1
5a78b8355292b800012284ca,ryrhbsip65,"Mediated Recall_Prolific",1,87,2023-02-05T23:55:26+00:00,2.7838551998138,3,versionB_stim.csv,ReadVersion.csv,Read,Read2,PANTS,COLLAR,Study2,M,8,40,Test,User,-,,Recall,Recall1,2533,clothing,28.571428571429,1431,2251,0,0,,1
5a78b8355292b800012284ca,ryrhbsip65,"Mediated Recall_Prolific",1,88,2023-02-05T23:55:29+00:00,2.6387579441071,3,versionB_stim.csv,ReadVersion.csv,Read,Read2,SICK,HIDE,Study2,U,45,11,Test,User,-,,Recall,Recall1,2382,health,40,1476,2075,0,0,,1
5a78b8355292b800012284ca,ryrhbsip65,"Mediated Recall_Prolific",1,89,2023-02-05T23:55:32+00:00,2.9982838630676,3,versionB_stim.csv,ReadVersion.csv,Read,Read2,VALLEY,PEAK,Study2,M,18,48,Test,User,-,,Recall,Recall1,2747,river,22.222222222222,1367,2357,0,0,,1
5a78b8355292b800012284ca,ryrhbsip65,"Mediated Recall_Prolific",1,90,2023-02-05T23:55:36+00:00,4.0335760116577,3,versionB_stim.csv,ReadVersion.csv,Read,Read2,CASH,LEG,Study2,U,50,8,Test,User,-,,Recall,Recall1,3775,money,25,1828,3459,0,0,,1
5a78b8355292b800012284ca,ryrhbsip65,"Mediated Recall_Prolific",1,91,2023-02-05T23:55:39+00:00,3.5126991271973,3,versionB_stim.csv,ReadVersion.csv,Read,Read2,HORNET,STING,Study2,F,30,28,Test,User,-,,Recall,Recall1,3254,bug,25,2511,2841,0,0,,1
5a78b8355292b800012284ca,ryrhbsip65,"Mediated Recall_Prolific",1,92,2023-02-05T23:55:42+00:00,2.6851880550385,3,versionB_stim.csv,ReadVersion.csv,Read,Read2,SUGAR,RIDDLE,Study2,U,40,49,Test,User,-,,Recall,Recall1,2415,food,20,1798,2219,0,0,,1
5a78b8355292b800012284ca,ryrhbsip65,"Mediated Recall_Prolific",1,93,2023-02-05T23:55:45+00:00,2.6035869121552,3,versionB_stim.csv,ReadVersion.csv,Read,Read2,WINDOW,KNOB,Study2,M,19,25,Test,User,-,,Recall,Recall1,2333,child,0,1296,1985,0,0,,1
5a78b8355292b800012284ca,ryrhbsip65,"Mediated Recall_Prolific",1,94,2023-02-05T23:55:48+00:00,3.0859429836273,3,versionB_stim.csv,ReadVersion.csv,Read,Read2,SOAP,DRINK,Study2,M,12,17,Test,User,-,,Recall,Recall1,2825,shower,18.181818181818,1988,2647,0,0,,1
5a78b8355292b800012284ca,ryrhbsip65,"Mediated Recall_Prolific",1,95,2023-02-05T23:55:50+00:00,2.5865840911865,3,versionB_stim.csv,ReadVersion.csv,Read,Read2,KING,VASE,Study2,U,36,16,Test,User,-,,Recall,Recall1,2337,queen,22.222222222222,1392,2072,0,0,,1
5a78b8355292b800012284ca,ryrhbsip65,"Mediated Recall_Prolific",1,96,2023-02-05T23:55:52+00:00,2.1482648849487,3,versionB_stim.csv,ReadVersion.csv,Read,Read2,SCHOOL,STOP,Study2,M,7,39,Test,User,-,,Recall,Recall1,1893,bus,28.571428571429,1207,1560,0,0,,1
5a78b8355292b800012284ca,ryrhbsip65,"Mediated Recall_Prolific",1,97,2023-02-05T23:56:08+00:00,15.358261108398,3,versionB_stim.csv,ReadVersion.csv,Read,Read2,GRILL,THIGH,Study2,M,17,44,Test,User,-,,Recall,Recall1,14966,barbeque,0,3119,14743,0,0,,1
5a78b8355292b800012284ca,ryrhbsip65,"Mediated Recall_Prolific",1,98,2023-02-05T23:56:10+00:00,2.3036308288574,3,versionB_stim.csv,ReadVersion.csv,Read,Read2,BLAZE,FIRE,Study2,F,26,15,Test,User,-,,Recall,Recall1,2053,fire,100,1238,1740,1,1,,1
5a78b8355292b800012284ca,ryrhbsip65,"Mediated Recall_Prolific",1,99,2023-02-05T23:56:13+00:00,2.526221036911,3,versionB_stim.csv,ReadVersion.csv,Read,Read2,RAZOR,MUSCLE,Study2,M,20,18,Test,User,-,,Recall,Recall1,2269,sharp,18.181818181818,1284,1900,0,0,,1
5a78b8355292b800012284ca,ryrhbsip65,"Mediated Recall_Prolific",1,100,2023-02-05T23:56:15+00:00,2.5860340595245,3,versionB_stim.csv,ReadVersion.csv,Read,Read2,PUSH,CLUTTER,Study2,U,41,34,Test,User,-,,Recall,Recall1,2331,pull,18.181818181818,1183,2072,0,0,,1
5a78b8355292b800012284ca,ryrhbsip65,"Mediated Recall_Prolific",1,101,2023-02-05T23:56:21+00:00,5.8256330490112,3,versionB_stim.csv,ReadVersion.csv,Read,Read2,HAPPY,CAR,Study2,U,37,10,Test,User,-,,Recall,Recall1,5562,sad,33.333333333333,2029,5168,0,0,,1
5a78b8355292b800012284ca,ryrhbsip65,"Mediated Recall_Prolific",1,102,2023-02-05T23:56:24+00:00,2.7784268856049,3,versionB_stim.csv,ReadVersion.csv,Read,Read2,MIRROR,CHILDREN,Study2,U,49,45,Test,User,-,,Recall,Recall1,2522,children,100,1122,2200,1,1,,1
5a78b8355292b800012284ca,ryrhbsip65,"Mediated Recall_Prolific",1,103,2023-02-05T23:56:27+00:00,3.4504041671753,3,versionB_stim.csv,ReadVersion.csv,Read,Read2,ART,WOLF,Study2,U,38,7,Test,User,-,,Recall,Recall1,3192,green,0,1898,2744,0,0,,1
5a78b8355292b800012284ca,ryrhbsip65,"Mediated Recall_Prolific",1,104,2023-02-05T23:56:30+00:00,2.3716878890991,3,versionB_stim.csv,ReadVersion.csv,Read,Read2,BRIDGE,WATER,Study2,F,35,23,Test,User,-,,Recall,Recall1,2117,water,100,1361,1937,1,1,,1
5a78b8355292b800012284ca,ryrhbsip65,"Mediated Recall_Prolific",1,105,2023-02-05T23:56:33+00:00,3.5700359344482,3,versionB_stim.csv,ReadVersion.csv,Read,Read2,SUMMER,SNOW,Study2,M,6,24,Test,User,-,,Recall,Recall1,3320,cold,25,1421,1862,0,0,,1
5a78b8355292b800012284ca,ryrhbsip65,"Mediated Recall_Prolific",1,106,2023-02-05T23:56:45+00:00,11.609755992889,3,versionB_stim.csv,ReadVersion.csv,Read,Read2,,,,,,0,Instruct,-,10,"You will now be presented with a new set of word pairs. Please study each pair. Remember that your memory will be tested! When finished, press Enter to move to the next pair.",Initial_Instruct,Instruct4,11218,,,-1,-1,,,,1
5a78b8355292b800012284ca,ryrhbsip65,"Mediated Recall_Prolific",1,107,2023-02-05T23:56:47+00:00,2.74613904953,3,versionB_stim.csv,ReadVersion.csv,Read,Read2,,,,,,0,Instruct,User,-,"Press Enter when you are readty to begin",,Instruct11,2495,,,-1,-1,,,,1
5a78b8355292b800012284ca,ryrhbsip65,"Mediated Recall_Prolific",1,108,2023-02-05T23:56:51+00:00,3.0852699279785,3,versionB_stim.csv,ReadVersion.csv,Read,Read2,CAMP,ADVENTURE,BUFFER4,Buffer,55,54,Study,User,-,,Study/JOL,BUFFER2,2829,,,-1,-1,,,,1
5a78b8355292b800012284ca,ryrhbsip65,"Mediated Recall_Prolific",1,109,2023-02-05T23:56:53+00:00,2.1819911003113,3,versionB_stim.csv,ReadVersion.csv,Read,Read2,SHRIMP,FISH,BUFFER4,Buffer,53,56,Study,User,-,,Study/JOL,BUFFER2,1929,,,-1,-1,,,,1
5a78b8355292b800012284ca,ryrhbsip65,"Mediated Recall_Prolific",1,110,2023-02-05T23:56:55+00:00,2.4094829559326,3,versionB_stim.csv,ReadVersion.csv,Read,Read2,ICE,FROZEN,BUFFER4,Buffer,54,53,Study,User,-,,Study/JOL,BUFFER2,2145,,,-1,-1,,,,1
5a78b8355292b800012284ca,ryrhbsip65,"Mediated Recall_Prolific",1,111,2023-02-05T23:56:57+00:00,2.2866489887238,3,versionB_stim.csv,ReadVersion.csv,Read,Read2,PITCHER,CATCHER,BUFFER1,Buffer,57,58,Study,User,-,,Study/JOL,BUFFER2,2040,,,-1,-1,,,,1
5a78b8355292b800012284ca,ryrhbsip65,"Mediated Recall_Prolific",1,112,2023-02-05T23:57:00+00:00,2.3179249763489,3,versionB_stim.csv,ReadVersion.csv,Read,Read2,MALT,CHOCOLATE,BUFFER2,Buffer,108,107,Study,User,-,,Study/JOL,BUFFER2,2064,,,-1,-1,,,,1
5a78b8355292b800012284ca,ryrhbsip65,"Mediated Recall_Prolific",1,113,2023-02-05T23:57:02+00:00,2.5416541099548,3,versionB_stim.csv,ReadVersion.csv,Read,Read2,TEMPERATURE,MORNING,Study1,U,103,101,Study,User,-,,Study/JOL,"Study Phase2",2290,,,-1,-1,,,,1
5a78b8355292b800012284ca,ryrhbsip65,"Mediated Recall_Prolific",1,114,2023-02-05T23:57:04+00:00,2.198224067688,3,versionB_stim.csv,ReadVersion.csv,Read,Read2,LISTEN,FICTION,Study1,U,99,90,Study,User,-,,Study/JOL,"Study Phase2",1926,,,-1,-1,,,,1
5a78b8355292b800012284ca,ryrhbsip65,"Mediated Recall_Prolific",1,115,2023-02-05T23:57:07+00:00,2.4561479091644,3,versionB_stim.csv,ReadVersion.csv,Read,Read2,SIP,DRINK,Study1,F,87,84,Study,User,-,,Study/JOL,"Study Phase2",2210,,,-1,-1,,,,1
5a78b8355292b800012284ca,ryrhbsip65,"Mediated Recall_Prolific",1,116,2023-02-05T23:57:10+00:00,2.5884110927582,3,versionB_stim.csv,ReadVersion.csv,Read,Read2,SIGN,TICK,Study1,U,102,86,Study,User,-,,Study/JOL,"Study Phase2",2333,,,-1,-1,,,,1
5a78b8355292b800012284ca,ryrhbsip65,"Mediated Recall_Prolific",1,117,2023-02-05T23:57:12+00:00,2.6851058006287,3,versionB_stim.csv,ReadVersion.csv,Read,Read2,MAZE,PHONE,Study1,U,97,104,Study,User,-,,Study/JOL,"Study Phase2",2434,,,-1,-1,,,,1
5a78b8355292b800012284ca,ryrhbsip65,"Mediated Recall_Prolific",1,118,2023-02-05T23:57:15+00:00,2.4552960395813,3,versionB_stim.csv,ReadVersion.csv,Read,Read2,BIRTHDAY,PIE,Study1,M,64,82,Study,User,-,,Study/JOL,"Study Phase2",2198,,,-1,-1,,,,1
5a78b8355292b800012284ca,ryrhbsip65,"Mediated Recall_Prolific",1,119,2023-02-05T23:57:17+00:00,1.9822201728821,3,versionB_stim.csv,ReadVersion.csv,Read,Read2,LITTER,TRASH,Study1,F,76,97,Study,User,-,,Study/JOL,"Study Phase2",1721,,,-1,-1,,,,1
5a78b8355292b800012284ca,ryrhbsip65,"Mediated Recall_Prolific",1,120,2023-02-05T23:57:19+00:00,2.4877707958221,3,versionB_stim.csv,ReadVersion.csv,Read,Read2,CAKE,HAND,Study1,U,104,99,Study,User,-,,Study/JOL,"Study Phase2",2226,,,-1,-1,,,,1
5a78b8355292b800012284ca,ryrhbsip65,"Mediated Recall_Prolific",1,121,2023-02-05T23:57:21+00:00,2.306725025177,3,versionB_stim.csv,ReadVersion.csv,Read,Read2,CRACKLE,ELECTION,Study1,U,94,69,Study,User,-,,Study/JOL,"Study Phase2",2055,,,-1,-1,,,,1
5a78b8355292b800012284ca,ryrhbsip65,"Mediated Recall_Prolific",1,122,2023-02-05T23:57:24+00:00,2.4606301784515,3,versionB_stim.csv,ReadVersion.csv,Read,Read2,AFFECTION,LOVE,Study1,F,86,91,Study,User,-,,Study/JOL,"Study Phase2",2202,,,-1,-1,,,,1
5a78b8355292b800012284ca,ryrhbsip65,"Mediated Recall_Prolific",1,123,2023-02-05T23:57:26+00:00,1.871120929718,3,versionB_stim.csv,ReadVersion.csv,Read,Read2,TUNA,FISH,Study1,F,90,73,Study,User,-,,Study/JOL,"Study Phase2",1614,,,-1,-1,,,,1
5a78b8355292b800012284ca,ryrhbsip65,"Mediated Recall_Prolific",1,124,2023-02-05T23:57:28+00:00,2.3286459445953,3,versionB_stim.csv,ReadVersion.csv,Read,Read2,FUZZY,BANG,Study1,U,105,88,Study,User,-,,Study/JOL,"Study Phase2",2066,,,-1,-1,,,,1
5a78b8355292b800012284ca,ryrhbsip65,"Mediated Recall_Prolific",1,125,2023-02-05T23:57:30+00:00,1.9480230808258,3,versionB_stim.csv,ReadVersion.csv,Read,Read2,MULE,DONKEY,Study1,F,79,67,Study,User,-,,Study/JOL,"Study Phase2",1691,,,-1,-1,,,,1
5a78b8355292b800012284ca,ryrhbsip65,"Mediated Recall_Prolific",1,126,2023-02-05T23:57:32+00:00,1.9769899845123,3,versionB_stim.csv,ReadVersion.csv,Read,Read2,HORSE,WHEEL,Study1,M,69,102,Study,User,-,,Study/JOL,"Study Phase2",1727,,,-1,-1,,,,1
5a78b8355292b800012284ca,ryrhbsip65,"Mediated Recall_Prolific",1,127,2023-02-05T23:57:34+00:00,2.0468170642853,3,versionB_stim.csv,ReadVersion.csv,Read,Read2,BEACH,BOX,Study1,M,62,79,Study,User,-,,Study/JOL,"Study Phase2",1788,,,-1,-1,,,,1
5a78b8355292b800012284ca,ryrhbsip65,"Mediated Recall_Prolific",1,128,2023-02-05T23:57:37+00:00,2.7120249271393,3,versionB_stim.csv,ReadVersion.csv,Read,Read2,SHELL,SHAKE,Study1,U,98,81,Study,User,-,,Study/JOL,"Study Phase2",2462,,,-1,-1,,,,1
5a78b8355292b800012284ca,ryrhbsip65,"Mediated Recall_Prolific",1,129,2023-02-05T23:57:39+00:00,2.3727569580078,3,versionB_stim.csv,ReadVersion.csv,Read,Read2,STRETCH,CLOTH,Study1,U,92,106,Study,User,-,,Study/JOL,"Study Phase2",2116,,,-1,-1,,,,1
5a78b8355292b800012284ca,ryrhbsip65,"Mediated Recall_Prolific",1,130,2023-02-05T23:57:42+00:00,2.5177960395813,3,versionB_stim.csv,ReadVersion.csv,Read,Read2,WORD,SENTENCE,Study1,F,82,93,Study,User,-,,Study/JOL,"Study Phase2",2260,,,-1,-1,,,,1
5a78b8355292b800012284ca,ryrhbsip65,"Mediated Recall_Prolific",1,131,2023-02-05T23:57:44+00:00,2.471960067749,3,versionB_stim.csv,ReadVersion.csv,Read,Read2,TOOTH,HAIR,Study1,M,74,68,Study,User,-,,Study/JOL,"Study Phase2",2216,,,-1,-1,,,,1
5a78b8355292b800012284ca,ryrhbsip65,"Mediated Recall_Prolific",1,132,2023-02-05T23:57:47+00:00,2.4115159511566,3,versionB_stim.csv,ReadVersion.csv,Read,Read2,MEAT,KEYS,Study1,U,96,103,Study,User,-,,Study/JOL,"Study Phase2",2157,,,-1,-1,,,,1
5a78b8355292b800012284ca,ryrhbsip65,"Mediated Recall_Prolific",1,133,2023-02-05T23:57:48+00:00,1.6840620040894,3,versionB_stim.csv,ReadVersion.csv,Read,Read2,NAP,SLEEP,Study1,F,84,62,Study,User,-,,Study/JOL,"Study Phase2",1424,,,-1,-1,,,,1
5a78b8355292b800012284ca,ryrhbsip65,"Mediated Recall_Prolific",1,134,2023-02-05T23:57:50+00:00,1.9198770523071,3,versionB_stim.csv,ReadVersion.csv,Read,Read2,CRY,BOTTLE,Study1,M,71,70,Study,User,-,,Study/JOL,"Study Phase2",1666,,,-1,-1,,,,1
5a78b8355292b800012284ca,ryrhbsip65,"Mediated Recall_Prolific",1,135,2023-02-05T23:57:53+00:00,2.500070810318,3,versionB_stim.csv,ReadVersion.csv,Read,Read2,MULE,DONKEY,Study1,F,85,98,Study,User,-,,Study/JOL,"Study Phase2",2264,,,-1,-1,,,,1
5a78b8355292b800012284ca,ryrhbsip65,"Mediated Recall_Prolific",1,136,2023-02-05T23:57:55+00:00,1.8921620845795,3,versionB_stim.csv,ReadVersion.csv,Read,Read2,CREDIT,CARD,Study1,F,88,77,Study,User,-,,Study/JOL,"Study Phase2",1635,,,-1,-1,,,,1
5a78b8355292b800012284ca,ryrhbsip65,"Mediated Recall_Prolific",1,137,2023-02-05T23:57:56+00:00,1.8155779838562,3,versionB_stim.csv,ReadVersion.csv,Read,Read2,ORCHID,FLOWER,Study1,F,89,83,Study,User,-,,Study/JOL,"Study Phase2",1553,,,-1,-1,,,,1
5a78b8355292b800012284ca,ryrhbsip65,"Mediated Recall_Prolific",1,138,2023-02-05T23:57:58+00:00,1.9978001117706,3,versionB_stim.csv,ReadVersion.csv,Read,Read2,MIRROR,MAROON,Study1,U,91,74,Study,User,-,,Study/JOL,"Study Phase2",1750,,,-1,-1,,,,1
5a78b8355292b800012284ca,ryrhbsip65,"Mediated Recall_Prolific",1,139,2023-02-05T23:58:00+00:00,1.6141698360443,3,versionB_stim.csv,ReadVersion.csv,Read,Read2,SCALP,HEAD,Study1,F,78,94,Study,User,-,,Study/JOL,"Study Phase2",1355,,,-1,-1,,,,1
5a78b8355292b800012284ca,ryrhbsip65,"Mediated Recall_Prolific",1,140,2023-02-05T23:58:02+00:00,1.7229671478271,3,versionB_stim.csv,ReadVersion.csv,Read,Read2,ROUGH,SILK,Study1,M,65,96,Study,User,-,,Study/JOL,"Study Phase2",1458,,,-1,-1,,,,1
5a78b8355292b800012284ca,ryrhbsip65,"Mediated Recall_Prolific",1,141,2023-02-05T23:58:04+00:00,2.2269418239594,3,versionB_stim.csv,ReadVersion.csv,Read,Read2,GIVE,STEAK,Study1,U,93,63,Study,User,-,,Study/JOL,"Study Phase2",1968,,,-1,-1,,,,1
5a78b8355292b800012284ca,ryrhbsip65,"Mediated Recall_Prolific",1,142,2023-02-05T23:58:06+00:00,1.8990790843964,3,versionB_stim.csv,ReadVersion.csv,Read,Read2,KEYS,ROD,Study1,U,100,76,Study,User,-,,Study/JOL,"Study Phase2",1643,,,-1,-1,,,,1
5a78b8355292b800012284ca,ryrhbsip65,"Mediated Recall_Prolific",1,143,2023-02-05T23:58:08+00:00,1.9094059467316,3,versionB_stim.csv,ReadVersion.csv,Read,Read2,LION,STRIPES,Study1,M,61,87,Study,User,-,,Study/JOL,"Study Phase2",1657,,,-1,-1,,,,1
5a78b8355292b800012284ca,ryrhbsip65,"Mediated Recall_Prolific",1,144,2023-02-05T23:58:10+00:00,2.3152520656586,3,versionB_stim.csv,ReadVersion.csv,Read,Read2,WAR,QUIET,Study1,M,63,72,Study,User,-,,Study/JOL,"Study Phase2",2060,,,-1,-1,,,,1
5a78b8355292b800012284ca,ryrhbsip65,"Mediated Recall_Prolific",1,145,2023-02-05T23:58:12+00:00,2.1666669845581,3,versionB_stim.csv,ReadVersion.csv,Read,Read2,HARD,COTTON,Study1,M,75,80,Study,User,-,,Study/JOL,"Study Phase2",1908,,,-1,-1,,,,1
5a78b8355292b800012284ca,ryrhbsip65,"Mediated Recall_Prolific",1,146,2023-02-05T23:58:14+00:00,2.0897450447083,3,versionB_stim.csv,ReadVersion.csv,Read,Read2,SWAN,BIRD,Study1,F,81,89,Study,User,-,,Study/JOL,"Study Phase2",1828,,,-1,-1,,,,1
5a78b8355292b800012284ca,ryrhbsip65,"Mediated Recall_Prolific",1,147,2023-02-05T23:58:16+00:00,1.9102668762207,3,versionB_stim.csv,ReadVersion.csv,Read,Read2,BAT,BOUNCE,Study1,M,67,105,Study,User,-,,Study/JOL,"Study Phase2",1654,,,-1,-1,,,,1
5a78b8355292b800012284ca,ryrhbsip65,"Mediated Recall_Prolific",1,148,2023-02-05T23:58:19+00:00,2.3024451732635,3,versionB_stim.csv,ReadVersion.csv,Read,Read2,SOON,BELT,Study1,U,101,71,Study,User,-,,Study/JOL,"Study Phase2",2055,,,-1,-1,,,,1
5a78b8355292b800012284ca,ryrhbsip65,"Mediated Recall_Prolific",1,149,2023-02-05T23:58:21+00:00,1.9855568408966,3,versionB_stim.csv,ReadVersion.csv,Read,Read2,TREE,SYRUP,Study1,M,66,85,Study,User,-,,Study/JOL,"Study Phase2",1748,,,-1,-1,,,,1
5a78b8355292b800012284ca,ryrhbsip65,"Mediated Recall_Prolific",1,150,2023-02-05T23:58:22+00:00,1.878044128418,3,versionB_stim.csv,ReadVersion.csv,Read,Read2,VEHICLE,CHARM,Study1,U,95,65,Study,User,-,,Study/JOL,"Study Phase2",1624,,,-1,-1,,,,1
5a78b8355292b800012284ca,ryrhbsip65,"Mediated Recall_Prolific",1,151,2023-02-05T23:58:24+00:00,1.6871559619904,3,versionB_stim.csv,ReadVersion.csv,Read,Read2,HYGIENE,CLEAN,Study1,F,83,100,Study,User,-,,Study/JOL,"Study Phase2",1427,,,-1,-1,,,,1
5a78b8355292b800012284ca,ryrhbsip65,"Mediated Recall_Prolific",1,152,2023-02-05T23:58:26+00:00,1.7990989685059,3,versionB_stim.csv,ReadVersion.csv,Read,Read2,CIRCLE,DANCE,Study1,M,68,64,Study,User,-,,Study/JOL,"Study Phase2",1546,,,-1,-1,,,,1
5a78b8355292b800012284ca,ryrhbsip65,"Mediated Recall_Prolific",1,153,2023-02-05T23:58:28+00:00,1.7803430557251,3,versionB_stim.csv,ReadVersion.csv,Read,Read2,DAY,DARK,Study1,M,73,75,Study,User,-,,Study/JOL,"Study Phase2",1524,,,-1,-1,,,,1
5a78b8355292b800012284ca,ryrhbsip65,"Mediated Recall_Prolific",1,154,2023-02-05T23:58:29+00:00,1.7598860263824,3,versionB_stim.csv,ReadVersion.csv,Read,Read2,CEILING,CARPET,Study1,M,70,78,Study,User,-,,Study/JOL,"Study Phase2",1503,,,-1,-1,,,,1
5a78b8355292b800012284ca,ryrhbsip65,"Mediated Recall_Prolific",1,155,2023-02-05T23:58:31+00:00,1.9032118320465,3,versionB_stim.csv,ReadVersion.csv,Read,Read2,WAGE,MONEY,Study1,F,77,66,Study,User,-,,Study/JOL,"Study Phase2",1644,,,-1,-1,,,,1
5a78b8355292b800012284ca,ryrhbsip65,"Mediated Recall_Prolific",1,156,2023-02-05T23:58:33+00:00,2.0175809860229,3,versionB_stim.csv,ReadVersion.csv,Read,Read2,ROOT,PLANT,Study1,F,80,95,Study,User,-,,Study/JOL,"Study Phase2",1763,,,-1,-1,,,,1
5a78b8355292b800012284ca,ryrhbsip65,"Mediated Recall_Prolific",1,157,2023-02-05T23:58:36+00:00,2.9089300632477,3,versionB_stim.csv,ReadVersion.csv,Read,Read2,WEDDING,FINGER,Study1,M,72,92,Study,User,-,,Study/JOL,"Study Phase2",2597,,,-1,-1,,,,1
5a78b8355292b800012284ca,ryrhbsip65,"Mediated Recall_Prolific",1,158,2023-02-05T23:58:39+00:00,2.6058211326599,3,versionB_stim.csv,ReadVersion.csv,Read,Read2,SPACE,JAM,BUFFER1,Buffer,60,57,Study,User,-,,Study/JOL,BUFFER2,2349,,,-1,-1,,,,1
5a78b8355292b800012284ca,ryrhbsip65,"Mediated Recall_Prolific",1,159,2023-02-05T23:58:41+00:00,1.9220747947693,3,versionB_stim.csv,ReadVersion.csv,Read,Read2,CARROT,POTATO,BUFFER4,Buffer,51,52,Study,User,-,,Study/JOL,BUFFER2,1656,,,-1,-1,,,,1
5a78b8355292b800012284ca,ryrhbsip65,"Mediated Recall_Prolific",1,160,2023-02-05T23:58:43+00:00,2.3207581043243,3,versionB_stim.csv,ReadVersion.csv,Read,Read2,SHERRIF,POLICE,BUFFER2,Buffer,107,109,Study,User,-,,Study/JOL,BUFFER2,2063,,,-1,-1,,,,1
5a78b8355292b800012284ca,ryrhbsip65,"Mediated Recall_Prolific",1,161,2023-02-05T23:58:45+00:00,2.088485956192,3,versionB_stim.csv,ReadVersion.csv,Read,Read2,THING,STUFF,BUFFER2,Buffer,110,111,Study,User,-,,Study/JOL,BUFFER2,1839,,,-1,-1,,,,1
5a78b8355292b800012284ca,ryrhbsip65,"Mediated Recall_Prolific",1,162,2023-02-05T23:58:47+00:00,2.1588110923767,3,versionB_stim.csv,ReadVersion.csv,Read,Read2,GEESE,GOOSE,BUFFER2,Buffer,106,110,Study,User,-,,Study/JOL,BUFFER2,1908,,,-1,-1,,,,1
5a78b8355292b800012284ca,ryrhbsip65,"Mediated Recall_Prolific",1,163,2023-02-05T23:58:50+00:00,2.8358330726624,3,versionB_stim.csv,ReadVersion.csv,Read,Read2,,,,,,0,Instruct,User,-,"You have completed this section. Please press Enter.",Filler_Instruction,Instruct2,2581,,,-1,-1,,,,1
5a78b8355292b800012284ca,ryrhbsip65,"Mediated Recall_Prolific",1,164,2023-02-06T00:00:51+00:00,120.41229581833,3,versionB_stim.csv,ReadVersion.csv,Read,Read2,,,,,,0,FreeRecall,120,120,"Please list the 50 US states in alphabetical order. The task will automatically advance to the next screen after two minutes.",,Filler1,120004,"Alaska, Alabama, Arkansas, California, Colorado, Delaware, Florida, Georgia, Hawaii, Idaho, Illinois, Iowa, Kansas, Kentucky, Louisiana, Maine, Michigan, Montana, New Mexico, Nevada, ",0,3924,103456,0,0,,1
5a78b8355292b800012284ca,ryrhbsip65,"Mediated Recall_Prolific",1,165,2023-02-06T00:01:02+00:00,11.117561101913,3,versionB_stim.csv,ReadVersion.csv,Read,Read2,,,,,,0,Instruct,-,10,"You will now be presented with the first word from each of the previously studied item pairs. Please type the missing word. If you do not know the word, you may guess or press Enter to skip forward to the next pair.",,Instruct3,10858,,,-1,-1,,,,1
5a78b8355292b800012284ca,ryrhbsip65,"Mediated Recall_Prolific",1,166,2023-02-06T00:01:13+00:00,11.386061906815,3,versionB_stim.csv,ReadVersion.csv,Read,Read2,CRACKLE,ELECTION,Study1,U,94,69,Test,User,-,,Recall,Recall2,11125,holiday,13.333333333333,9017,10846,0,0,,1
5a78b8355292b800012284ca,ryrhbsip65,"Mediated Recall_Prolific",1,167,2023-02-06T00:01:16+00:00,3.1140010356903,3,versionB_stim.csv,ReadVersion.csv,Read,Read2,ROUGH,SILK,Study1,M,65,96,Test,User,-,,Recall,Recall2,2854,paper,0,2097,2674,0,0,,1
5a78b8355292b800012284ca,ryrhbsip65,"Mediated Recall_Prolific",1,168,2023-02-06T00:01:18+00:00,1.926521062851,3,versionB_stim.csv,ReadVersion.csv,Read,Read2,VEHICLE,CHARM,Study1,U,95,65,Test,User,-,,Recall,Recall2,1662,car,75,1128,1472,0,1,,1
5a78b8355292b800012284ca,ryrhbsip65,"Mediated Recall_Prolific",1,169,2023-02-06T00:01:20+00:00,2.1616690158844,3,versionB_stim.csv,ReadVersion.csv,Read,Read2,NAP,SLEEP,Study1,F,84,62,Test,User,-,,Recall,Recall2,1899,sleep,100,1099,1611,1,1,,1
5a78b8355292b800012284ca,ryrhbsip65,"Mediated Recall_Prolific",1,170,2023-02-06T00:01:24+00:00,3.9023509025574,3,versionB_stim.csv,ReadVersion.csv,Read,Read2,HARD,COTTON,Study1,M,75,80,Test,User,-,,Recall,Recall2,3643,rock,20,2103,3347,0,0,,1
5a78b8355292b800012284ca,ryrhbsip65,"Mediated Recall_Prolific",1,171,2023-02-06T00:01:27+00:00,2.5940999984741,3,versionB_stim.csv,ReadVersion.csv,Read,Read2,SOON,BELT,Study1,U,101,71,Test,User,-,,Recall,Recall2,2343,seen,25,1583,2057,0,0,,1
5a78b8355292b800012284ca,ryrhbsip65,"Mediated Recall_Prolific",1,172,2023-02-06T00:01:29+00:00,2.1786410808563,3,versionB_stim.csv,ReadVersion.csv,Read,Read2,ORCHID,FLOWER,Study1,F,89,83,Test,User,-,,Recall,Recall2,1927,flower,100,1004,1750,1,1,,1
5a78b8355292b800012284ca,ryrhbsip65,"Mediated Recall_Prolific",1,173,2023-02-06T00:01:32+00:00,2.6296539306641,3,versionB_stim.csv,ReadVersion.csv,Read,Read2,WEDDING,FINGER,Study1,M,72,92,Test,User,-,,Recall,Recall2,2362,cake,20,1509,2014,0,0,,1
5a78b8355292b800012284ca,ryrhbsip65,"Mediated Recall_Prolific",1,174,2023-02-06T00:01:36+00:00,4.3793940544128,3,versionB_stim.csv,ReadVersion.csv,Read,Read2,STRETCH,CLOTH,Study1,U,92,106,Test,User,-,,Recall,Recall2,4120,pants,20,2476,3883,0,0,,1
5a78b8355292b800012284ca,ryrhbsip65,"Mediated Recall_Prolific",1,175,2023-02-06T00:01:42+00:00,6.5143949985504,3,versionB_stim.csv,ReadVersion.csv,Read,Read2,FUZZY,BANG,Study1,U,105,88,Test,User,-,,Recall,Recall2,6241,bangs,88.888888888889,5274,5922,0,1,,1
5a78b8355292b800012284ca,ryrhbsip65,"Mediated Recall_Prolific",1,176,2023-02-06T00:01:46+00:00,3.9330840110779,3,versionB_stim.csv,ReadVersion.csv,Read,Read2,CEILING,CARPET,Study1,M,70,78,Test,User,-,,Recall,Recall2,3683,carpet,100,1283,3439,1,1,,1
5a78b8355292b800012284ca,ryrhbsip65,"Mediated Recall_Prolific",1,177,2023-02-06T00:01:52+00:00,6.0094149112701,3,versionB_stim.csv,ReadVersion.csv,Read,Read2,HYGIENE,CLEAN,Study1,F,83,100,Test,User,-,,Recall,Recall2,5743,brush,0,2743,3583,0,0,,1
5a78b8355292b800012284ca,ryrhbsip65,"Mediated Recall_Prolific",1,178,2023-02-06T00:01:56+00:00,3.6748180389404,3,versionB_stim.csv,ReadVersion.csv,Read,Read2,HORSE,WHEEL,Study1,M,69,102,Test,User,-,,Recall,Recall2,3407,wheel,100,2556,3092,1,1,,1
5a78b8355292b800012284ca,ryrhbsip65,"Mediated Recall_Prolific",1,179,2023-02-06T00:01:58+00:00,2.2198960781097,3,versionB_stim.csv,ReadVersion.csv,Read,Read2,KEYS,ROD,Study1,U,100,76,Test,User,-,,Recall,Recall2,1961,car,33.333333333333,1312,1651,0,0,,1
5a78b8355292b800012284ca,ryrhbsip65,"Mediated Recall_Prolific",1,180,2023-02-06T00:02:01+00:00,2.6188268661499,3,versionB_stim.csv,ReadVersion.csv,Read,Read2,MULE,DONKEY,Study1,F,79,67,Test,User,-,,Recall,Recall2,2356,donkey,100,1110,2028,1,1,,1
5a78b8355292b800012284ca,ryrhbsip65,"Mediated Recall_Prolific",1,181,2023-02-06T00:02:05+00:00,3.7191121578217,3,versionB_stim.csv,ReadVersion.csv,Read,Read2,CAKE,HAND,Study1,U,104,99,Test,User,-,,Recall,Recall2,3461,wedding,18.181818181818,2094,3203,0,0,,1
5a78b8355292b800012284ca,ryrhbsip65,"Mediated Recall_Prolific",1,182,2023-02-06T00:02:08+00:00,3.1712188720703,3,versionB_stim.csv,ReadVersion.csv,Read,Read2,TOOTH,HAIR,Study1,M,74,68,Test,User,-,,Recall,Recall2,2913,teeth,22.222222222222,1714,2602,0,0,,1
5a78b8355292b800012284ca,ryrhbsip65,"Mediated Recall_Prolific",1,183,2023-02-06T00:02:10+00:00,1.9929931163788,3,versionB_stim.csv,ReadVersion.csv,Read,Read2,DAY,DARK,Study1,M,73,75,Test,User,-,,Recall,Recall2,1732,night,0,1014,1503,0,0,,1
5a78b8355292b800012284ca,ryrhbsip65,"Mediated Recall_Prolific",1,184,2023-02-06T00:02:12+00:00,2.0579538345337,3,versionB_stim.csv,ReadVersion.csv,Read,Read2,LISTEN,FICTION,Study1,U,99,90,Test,User,-,,Recall,Recall2,1801,hear,0,1195,1497,0,0,,1
5a78b8355292b800012284ca,ryrhbsip65,"Mediated Recall_Prolific",1,185,2023-02-06T00:02:16+00:00,4.1061329841614,3,versionB_stim.csv,ReadVersion.csv,Read,Read2,CRY,BOTTLE,Study1,M,71,70,Test,User,-,,Recall,Recall2,3853,mirror,16.666666666667,2880,3617,0,0,,1
5a78b8355292b800012284ca,ryrhbsip65,"Mediated Recall_Prolific",1,186,2023-02-06T00:02:19+00:00,2.9004211425781,3,versionB_stim.csv,ReadVersion.csv,Read,Read2,MIRROR,MAROON,Study1,U,91,74,Test,User,-,,Recall,Recall2,2646,child,0,1233,1854,0,0,,1
5a78b8355292b800012284ca,ryrhbsip65,"Mediated Recall_Prolific",1,187,2023-02-06T00:02:23+00:00,3.771684885025,3,versionB_stim.csv,ReadVersion.csv,Read,Read2,BIRTHDAY,PIE,Study1,M,64,82,Test,User,-,,Recall,Recall2,3518,pie,100,2403,3130,1,1,,1
5a78b8355292b800012284ca,ryrhbsip65,"Mediated Recall_Prolific",1,188,2023-02-06T00:02:25+00:00,2.3901062011719,3,versionB_stim.csv,ReadVersion.csv,Read,Read2,GIVE,STEAK,Study1,U,93,63,Test,User,-,,Recall,Recall2,2134,gave,22.222222222222,1421,1899,0,0,,1
5a78b8355292b800012284ca,ryrhbsip65,"Mediated Recall_Prolific",1,189,2023-02-06T00:02:27+00:00,2.2101898193359,3,versionB_stim.csv,ReadVersion.csv,Read,Read2,TEMPERATURE,MORNING,Study1,U,103,101,Test,User,-,,Recall,Recall2,1957,warm,18.181818181818,1196,1666,0,0,,1
5a78b8355292b800012284ca,ryrhbsip65,"Mediated Recall_Prolific",1,190,2023-02-06T00:02:29+00:00,1.9430620670319,3,versionB_stim.csv,ReadVersion.csv,Read,Read2,TUNA,FISH,Study1,F,90,73,Test,User,-,,Recall,Recall2,1689,fish,100,992,1354,1,1,,1
5a78b8355292b800012284ca,ryrhbsip65,"Mediated Recall_Prolific",1,191,2023-02-06T00:02:33+00:00,3.3785500526428,3,versionB_stim.csv,ReadVersion.csv,Read,Read2,TREE,SYRUP,Study1,M,66,85,Test,User,-,,Recall,Recall2,3118,monsoon,16.666666666667,2005,2899,0,0,,1
5a78b8355292b800012284ca,ryrhbsip65,"Mediated Recall_Prolific",1,192,2023-02-06T00:02:35+00:00,2.2860610485077,3,versionB_stim.csv,ReadVersion.csv,Read,Read2,SIP,DRINK,Study1,F,87,84,Test,User,-,,Recall,Recall2,2028,soda,22.222222222222,1009,1816,0,0,,1
5a78b8355292b800012284ca,ryrhbsip65,"Mediated Recall_Prolific",1,193,2023-02-06T00:02:37+00:00,2.5765898227692,3,versionB_stim.csv,ReadVersion.csv,Read,Read2,MULE,DONKEY,Study1,F,85,98,Test,User,-,,Recall,Recall2,2320,donkey,100,966,1970,1,1,,1
5a78b8355292b800012284ca,ryrhbsip65,"Mediated Recall_Prolific",1,194,2023-02-06T00:02:40+00:00,2.1105749607086,3,versionB_stim.csv,ReadVersion.csv,Read,Read2,BEACH,BOX,Study1,M,62,79,Test,User,-,,Recall,Recall2,1852,ball,28.571428571429,1023,1559,0,0,,1
5a78b8355292b800012284ca,ryrhbsip65,"Mediated Recall_Prolific",1,195,2023-02-06T00:02:44+00:00,4.1932101249695,3,versionB_stim.csv,ReadVersion.csv,Read,Read2,SWAN,BIRD,Study1,F,81,89,Test,User,-,,Recall,Recall2,3930,duck,25,3131,3513,0,0,,1
5a78b8355292b800012284ca,ryrhbsip65,"Mediated Recall_Prolific",1,196,2023-02-06T00:02:48+00:00,4.7115590572357,3,versionB_stim.csv,ReadVersion.csv,Read,Read2,CIRCLE,DANCE,Study1,M,68,64,Test,User,-,,Recall,Recall2,4453,shape,40,3585,4204,0,0,,1
5a78b8355292b800012284ca,ryrhbsip65,"Mediated Recall_Prolific",1,197,2023-02-06T00:02:51+00:00,2.0623600482941,3,versionB_stim.csv,ReadVersion.csv,Read,Read2,AFFECTION,LOVE,Study1,F,86,91,Test,User,-,,Recall,Recall2,1802,love,100,1067,1425,1,1,,1
5a78b8355292b800012284ca,ryrhbsip65,"Mediated Recall_Prolific",1,198,2023-02-06T00:02:55+00:00,4.7021238803864,3,versionB_stim.csv,ReadVersion.csv,Read,Read2,WORD,SENTENCE,Study1,F,82,93,Test,User,-,,Recall,Recall2,4438,chess,30.769230769231,3398,4195,0,0,,1
5a78b8355292b800012284ca,ryrhbsip65,"Mediated Recall_Prolific",1,199,2023-02-06T00:02:57+00:00,2.2474389076233,3,versionB_stim.csv,ReadVersion.csv,Read,Read2,WAGE,MONEY,Study1,F,77,66,Test,User,-,,Recall,Recall2,1978,money,100,1106,1672,1,1,,1
5a78b8355292b800012284ca,ryrhbsip65,"Mediated Recall_Prolific",1,200,2023-02-06T00:03:01+00:00,3.0227031707764,3,versionB_stim.csv,ReadVersion.csv,Read,Read2,SIGN,TICK,Study1,U,102,86,Test,User,-,,Recall,Recall2,2761,language,0,1095,2452,0,0,,1
5a78b8355292b800012284ca,ryrhbsip65,"Mediated Recall_Prolific",1,201,2023-02-06T00:03:04+00:00,3.6737990379333,3,versionB_stim.csv,ReadVersion.csv,Read,Read2,WAR,QUIET,Study1,M,63,72,Test,User,-,,Recall,Recall2,3334,quiet,100,1849,3040,1,1,,1
5a78b8355292b800012284ca,ryrhbsip65,"Mediated Recall_Prolific",1,202,2023-02-06T00:03:07+00:00,2.827476978302,3,versionB_stim.csv,ReadVersion.csv,Read,Read2,SCALP,HEAD,Study1,F,78,94,Test,User,-,,Recall,Recall2,2567,head,100,1252,2187,1,1,,1
5a78b8355292b800012284ca,ryrhbsip65,"Mediated Recall_Prolific",1,203,2023-02-06T00:03:11+00:00,3.8517169952393,3,versionB_stim.csv,ReadVersion.csv,Read,Read2,SHELL,SHAKE,Study1,U,98,81,Test,User,-,,Recall,Recall2,3590,fish,44.444444444444,2987,3324,0,0,,1
5a78b8355292b800012284ca,ryrhbsip65,"Mediated Recall_Prolific",1,204,2023-02-06T00:03:15+00:00,3.9530909061432,3,versionB_stim.csv,ReadVersion.csv,Read,Read2,LION,STRIPES,Study1,M,61,87,Test,User,-,,Recall,Recall2,3696,stripes,100,1496,3392,1,1,,1
5a78b8355292b800012284ca,ryrhbsip65,"Mediated Recall_Prolific",1,205,2023-02-06T00:03:18+00:00,2.8613069057465,3,versionB_stim.csv,ReadVersion.csv,Read,Read2,ROOT,PLANT,Study1,F,80,95,Test,User,-,,Recall,Recall2,2603,cause,20,1663,2320,0,0,,1
5a78b8355292b800012284ca,ryrhbsip65,"Mediated Recall_Prolific",1,206,2023-02-06T00:03:20+00:00,2.6393461227417,3,versionB_stim.csv,ReadVersion.csv,Read,Read2,MAZE,PHONE,Study1,U,97,104,Test,User,-,,Recall,Recall2,2378,clouds,18.181818181818,1285,2018,0,0,,1
5a78b8355292b800012284ca,ryrhbsip65,"Mediated Recall_Prolific",1,207,2023-02-06T00:03:22+00:00,2.0038750171661,3,versionB_stim.csv,ReadVersion.csv,Read,Read2,CREDIT,CARD,Study1,F,88,77,Test,User,-,,Recall,Recall2,1742,card,100,875,1462,1,1,,1
5a78b8355292b800012284ca,ryrhbsip65,"Mediated Recall_Prolific",1,208,2023-02-06T00:03:25+00:00,2.6209659576416,3,versionB_stim.csv,ReadVersion.csv,Read,Read2,LITTER,TRASH,Study1,F,76,97,Test,User,-,,Recall,Recall2,2365,trash,100,1213,1889,1,1,,1
5a78b8355292b800012284ca,ryrhbsip65,"Mediated Recall_Prolific",1,209,2023-02-06T00:03:28+00:00,3.0099101066589,3,versionB_stim.csv,ReadVersion.csv,Read,Read2,BAT,BOUNCE,Study1,M,67,105,Test,User,-,,Recall,Recall2,2750,bounce,100,1607,2374,1,1,,1
5a78b8355292b800012284ca,ryrhbsip65,"Mediated Recall_Prolific",1,210,2023-02-06T00:03:31+00:00,2.8178949356079,3,versionB_stim.csv,ReadVersion.csv,Read,Read2,MEAT,KEYS,Study1,U,96,103,Test,User,-,,Recall,Recall2,2555,steak,22.222222222222,1556,2219,0,0,,1
5a78b8355292b800012284ca,ryrhbsip65,"Mediated Recall_Prolific",1,211,2023-02-06T00:03:32+00:00,1.4563820362091,3,versionB_stim.csv,ReadVersion.csv,Read,Read2,,,,,,0,Instruct,User,-,"You have completed this section. Please press Enter.",,Instruct7,1198,,,-1,-1,,,,1
5a78b8355292b800012284ca,ryrhbsip65,"Mediated Recall_Prolific",1,212,2023-02-06T00:03:36+00:00,3.4621379375458,3,versionB_stim.csv,ReadVersion.csv,Read,Read2,,,,,,0,Instruct,User,-,"The following screen will ask you a few questions abour your experience today. You must complete these questions to receive credit.",,Instruct8,3205,,,-1,-1,,,,1
