Username,ID,ExperimentName,Session,Trial,Date,TimeDif,"Condition Number","Stimuli File","Order File","Condition Description","Condition Notes",Stimuli*Cue,Stimuli*Answer,Stimuli*Shuffle,"Stimuli*Stimuli Notes",Stimuli*Value,Procedure*Item,"Procedure*Trial Type","Procedure*Max Time","Procedure*Min Time",Procedure*Text,"Procedure*Procedure Notes",Procedure*Shuffle,Response*RT,Response*Response,Response*Accuracy,Response*RTfirst,Response*RTlast,Response*strictAcc,Response*lenientAcc,Response*focus,Response*Focus
602454a47d0d7d121a1e444b,1gywxzqn9r,"Mediated Recall_Prolific",1,1,2023-02-06T00:03:52+00:00,69.238746166229,1,versionA_stim.csv,ReadVersion.csv,Read,Read1,,,,,,0,Instruct,-,5,"In this section, you will be presented with a series of word pairs. Please study each word pair! Your memory will be tested!",Initial_Instruct,Instruct1,68919,,,-1,-1,,,,0.221
602454a47d0d7d121a1e444b,1gywxzqn9r,"Mediated Recall_Prolific",1,2,2023-02-06T00:04:01+00:00,9.157812833786,1,versionA_stim.csv,ReadVersion.csv,Read,Read1,,,,,,0,Instruct,User,-,"You will now begin. Press Enter when you are ready to begin.",,Instruct16,8799,,,-1,-1,,,,0.545
602454a47d0d7d121a1e444b,1gywxzqn9r,"Mediated Recall_Prolific",1,3,2023-02-06T00:04:04+00:00,2.7300939559937,1,versionA_stim.csv,ReadVersion.csv,Read,Read1,SCARE,FRIGHT,BUFFER1,Buffer,4,3,Study,User,-,,Study/JOL,BUFFER,2495,,,-1,-1,,,,1
602454a47d0d7d121a1e444b,1gywxzqn9r,"Mediated Recall_Prolific",1,4,2023-02-06T00:04:07+00:00,3.3427450656891,1,versionA_stim.csv,ReadVersion.csv,Read,Read1,PEANUT,BUTTER,BUFFER1,Buffer,3,2,Study,User,-,,Study/JOL,BUFFER,3110,,,-1,-1,,,,0.313
602454a47d0d7d121a1e444b,1gywxzqn9r,"Mediated Recall_Prolific",1,5,2023-02-06T00:04:10+00:00,2.7171769142151,1,versionA_stim.csv,ReadVersion.csv,Read,Read1,SPACE,JAM,BUFFER1,Buffer,5,6,Study,User,-,,Study/JOL,BUFFER,2467,,,-1,-1,,,,0.462
602454a47d0d7d121a1e444b,1gywxzqn9r,"Mediated Recall_Prolific",1,6,2023-02-06T00:04:13+00:00,3.238646030426,1,versionA_stim.csv,ReadVersion.csv,Read,Read1,PITCHER,CATCHER,BUFFER1,Buffer,2,5,Study,User,-,,Study/JOL,BUFFER,2999,,,-1,-1,,,,0.533
602454a47d0d7d121a1e444b,1gywxzqn9r,"Mediated Recall_Prolific",1,7,2023-02-06T00:04:18+00:00,4.2790760993958,1,versionA_stim.csv,ReadVersion.csv,Read,Read1,TREES,GREEN,BUFFER1,Buffer,1,4,Study,User,-,,Study/JOL,BUFFER,4036,,,-1,-1,,,,0.55
602454a47d0d7d121a1e444b,1gywxzqn9r,"Mediated Recall_Prolific",1,8,2023-02-06T00:04:21+00:00,3.4899809360504,1,versionA_stim.csv,ReadVersion.csv,Read,Read1,CRY,BOTTLE,Study1,M,16,32,Study,User,-,,Study/JOL,"Study Phase",3258,,,-1,-1,,,,0.412
602454a47d0d7d121a1e444b,1gywxzqn9r,"Mediated Recall_Prolific",1,9,2023-02-06T00:04:24+00:00,2.9918849468231,1,versionA_stim.csv,ReadVersion.csv,Read,Read1,CRACKLE,ELECTION,Study1,U,39,13,Study,User,-,,Study/JOL,"Study Phase",2757,,,-1,-1,,,,0.571
602454a47d0d7d121a1e444b,1gywxzqn9r,"Mediated Recall_Prolific",1,10,2023-02-06T00:04:27+00:00,3.2281420230865,1,versionA_stim.csv,ReadVersion.csv,Read,Read1,HYGIENE,CLEAN,Study1,F,28,30,Study,User,-,,Study/JOL,"Study Phase",2994,,,-1,-1,,,,0.333
602454a47d0d7d121a1e444b,1gywxzqn9r,"Mediated Recall_Prolific",1,11,2023-02-06T00:04:31+00:00,3.1989200115204,1,versionA_stim.csv,ReadVersion.csv,Read,Read1,HARD,COTTON,Study1,M,20,28,Study,User,-,,Study/JOL,"Study Phase",2966,,,-1,-1,,,,0.333
602454a47d0d7d121a1e444b,1gywxzqn9r,"Mediated Recall_Prolific",1,12,2023-02-06T00:04:33+00:00,2.4135119915009,1,versionA_stim.csv,ReadVersion.csv,Read,Read1,GIVE,STEAK,Study1,U,38,19,Study,User,-,,Study/JOL,"Study Phase",2190,,,-1,-1,,,,0.636
602454a47d0d7d121a1e444b,1gywxzqn9r,"Mediated Recall_Prolific",1,13,2023-02-06T00:04:35+00:00,2.4270219802856,1,versionA_stim.csv,ReadVersion.csv,Read,Read1,LION,STRIPES,Study1,M,6,9,Study,User,-,,Study/JOL,"Study Phase",2193,,,-1,-1,,,,0.636
602454a47d0d7d121a1e444b,1gywxzqn9r,"Mediated Recall_Prolific",1,14,2023-02-06T00:04:38+00:00,2.5355980396271,1,versionA_stim.csv,ReadVersion.csv,Read,Read1,HORSE,WHEEL,Study1,M,14,39,Study,User,-,,Study/JOL,"Study Phase",2272,,,-1,-1,,,,0.667
602454a47d0d7d121a1e444b,1gywxzqn9r,"Mediated Recall_Prolific",1,15,2023-02-06T00:04:41+00:00,2.8154990673065,1,versionA_stim.csv,ReadVersion.csv,Read,Read1,BAT,BOUNCE,Study1,M,12,42,Study,User,-,,Study/JOL,"Study Phase",2588,,,-1,-1,,,,0.692
602454a47d0d7d121a1e444b,1gywxzqn9r,"Mediated Recall_Prolific",1,16,2023-02-06T00:04:44+00:00,2.8469450473785,1,versionA_stim.csv,ReadVersion.csv,Read,Read1,AFFECTION,LOVE,Study1,F,31,44,Study,User,-,,Study/JOL,"Study Phase",2610,,,-1,-1,,,,0.692
602454a47d0d7d121a1e444b,1gywxzqn9r,"Mediated Recall_Prolific",1,17,2023-02-06T00:04:46+00:00,2.4662029743195,1,versionA_stim.csv,ReadVersion.csv,Read,Read1,SIGN,TICK,Study1,U,47,45,Study,User,-,,Study/JOL,"Study Phase",2225,,,-1,-1,,,,0.636
602454a47d0d7d121a1e444b,1gywxzqn9r,"Mediated Recall_Prolific",1,18,2023-02-06T00:04:49+00:00,2.7849550247192,1,versionA_stim.csv,ReadVersion.csv,Read,Read1,SHELL,SHAKE,Study1,U,43,37,Study,User,-,,Study/JOL,"Study Phase",2543,,,-1,-1,,,,0.615
602454a47d0d7d121a1e444b,1gywxzqn9r,"Mediated Recall_Prolific",1,19,2023-02-06T00:04:51+00:00,2.3825948238373,1,versionA_stim.csv,ReadVersion.csv,Read,Read1,ROUGH,SILK,Study1,M,10,25,Study,User,-,,Study/JOL,"Study Phase",2151,,,-1,-1,,,,0.636
602454a47d0d7d121a1e444b,1gywxzqn9r,"Mediated Recall_Prolific",1,20,2023-02-06T00:04:54+00:00,2.8843371868134,1,versionA_stim.csv,ReadVersion.csv,Read,Read1,MEAT,KEYS,Study1,U,41,43,Study,User,-,,Study/JOL,"Study Phase",2661,,,-1,-1,,,,0.643
602454a47d0d7d121a1e444b,1gywxzqn9r,"Mediated Recall_Prolific",1,21,2023-02-06T00:04:58+00:00,3.5197718143463,1,versionA_stim.csv,ReadVersion.csv,Read,Read1,CREDIT,CARD,Study1,F,33,31,Study,User,-,,Study/JOL,"Study Phase",3288,,,-1,-1,,,,0.471
602454a47d0d7d121a1e444b,1gywxzqn9r,"Mediated Recall_Prolific",1,22,2023-02-06T00:05:04+00:00,6.5497560501099,1,versionA_stim.csv,ReadVersion.csv,Read,Read1,MULE,DONKEY,Study1,F,30,8,Study,User,-,,Study/JOL,"Study Phase",6162,,,-1,-1,,,,0.29
602454a47d0d7d121a1e444b,1gywxzqn9r,"Mediated Recall_Prolific",1,23,2023-02-06T00:05:07+00:00,2.854259967804,1,versionA_stim.csv,ReadVersion.csv,Read,Read1,SCALP,HEAD,Study1,F,23,46,Study,User,-,,Study/JOL,"Study Phase",2617,,,-1,-1,,,,0.385
602454a47d0d7d121a1e444b,1gywxzqn9r,"Mediated Recall_Prolific",1,24,2023-02-06T00:05:10+00:00,2.8909831047058,1,versionA_stim.csv,ReadVersion.csv,Read,Read1,VEHICLE,CHARM,Study1,U,40,22,Study,User,-,,Study/JOL,"Study Phase",2666,,,-1,-1,,,,0.429
602454a47d0d7d121a1e444b,1gywxzqn9r,"Mediated Recall_Prolific",1,25,2023-02-06T00:05:13+00:00,3.4630300998688,1,versionA_stim.csv,ReadVersion.csv,Read,Read1,WEDDING,FINGER,Study1,M,17,18,Study,User,-,,Study/JOL,"Study Phase",3240,,,-1,-1,,,,0.647
602454a47d0d7d121a1e444b,1gywxzqn9r,"Mediated Recall_Prolific",1,26,2023-02-06T00:05:16+00:00,2.4485077857971,1,versionA_stim.csv,ReadVersion.csv,Read,Read1,LITTER,TRASH,Study1,F,21,12,Study,User,-,,Study/JOL,"Study Phase",2215,,,-1,-1,,,,0.636
602454a47d0d7d121a1e444b,1gywxzqn9r,"Mediated Recall_Prolific",1,27,2023-02-06T00:05:19+00:00,2.6799681186676,1,versionA_stim.csv,ReadVersion.csv,Read,Read1,TOOTH,HAIR,Study1,M,19,16,Study,User,-,,Study/JOL,"Study Phase",2436,,,-1,-1,,,,0.692
602454a47d0d7d121a1e444b,1gywxzqn9r,"Mediated Recall_Prolific",1,28,2023-02-06T00:05:21+00:00,2.2541708946228,1,versionA_stim.csv,ReadVersion.csv,Read,Read1,SWAN,BIRD,Study1,F,26,11,Study,User,-,,Study/JOL,"Study Phase",2008,,,-1,-1,,,,0.7
602454a47d0d7d121a1e444b,1gywxzqn9r,"Mediated Recall_Prolific",1,29,2023-02-06T00:05:26+00:00,5.383367061615,1,versionA_stim.csv,ReadVersion.csv,Read,Read1,SOON,BELT,Study1,U,46,14,Study,User,-,,Study/JOL,"Study Phase",5017,,,-1,-1,,,,0.2
602454a47d0d7d121a1e444b,1gywxzqn9r,"Mediated Recall_Prolific",1,30,2023-02-06T00:05:32+00:00,5.8484189510345,1,versionA_stim.csv,ReadVersion.csv,Read,Read1,MULE,DONKEY,Study1,F,24,17,Study,User,-,,Study/JOL,"Study Phase",5511,,,-1,-1,,,,0.357
602454a47d0d7d121a1e444b,1gywxzqn9r,"Mediated Recall_Prolific",1,31,2023-02-06T00:05:35+00:00,2.5117461681366,1,versionA_stim.csv,ReadVersion.csv,Read,Read1,CAKE,HAND,Study1,U,49,38,Study,User,-,,Study/JOL,"Study Phase",2281,,,-1,-1,,,,0.5
602454a47d0d7d121a1e444b,1gywxzqn9r,"Mediated Recall_Prolific",1,32,2023-02-06T00:05:37+00:00,2.125519990921,1,versionA_stim.csv,ReadVersion.csv,Read,Read1,DAY,DARK,Study1,M,18,36,Study,User,-,,Study/JOL,"Study Phase",1856,,,-1,-1,,,,0.5
602454a47d0d7d121a1e444b,1gywxzqn9r,"Mediated Recall_Prolific",1,33,2023-02-06T00:05:39+00:00,2.5955319404602,1,versionA_stim.csv,ReadVersion.csv,Read,Read1,WORD,SENTENCE,Study1,F,27,40,Study,User,-,,Study/JOL,"Study Phase",2349,,,-1,-1,,,,0.75
602454a47d0d7d121a1e444b,1gywxzqn9r,"Mediated Recall_Prolific",1,34,2023-02-06T00:05:42+00:00,2.6619870662689,1,versionA_stim.csv,ReadVersion.csv,Read,Read1,FUZZY,BANG,Study1,U,50,41,Study,User,-,,Study/JOL,"Study Phase",2428,,,-1,-1,,,,0.5
602454a47d0d7d121a1e444b,1gywxzqn9r,"Mediated Recall_Prolific",1,35,2023-02-06T00:05:45+00:00,2.9416048526764,1,versionA_stim.csv,ReadVersion.csv,Read,Read1,LISTEN,FICTION,Study1,U,44,7,Study,User,-,,Study/JOL,"Study Phase",2697,,,-1,-1,,,,0.429
602454a47d0d7d121a1e444b,1gywxzqn9r,"Mediated Recall_Prolific",1,36,2023-02-06T00:05:49+00:00,4.3451471328735,1,versionA_stim.csv,ReadVersion.csv,Read,Read1,TEMPERATURE,MORNING,Study1,U,48,23,Study,User,-,,Study/JOL,"Study Phase",4102,,,-1,-1,,,,0.571
602454a47d0d7d121a1e444b,1gywxzqn9r,"Mediated Recall_Prolific",1,37,2023-02-06T00:05:55+00:00,6.2666058540344,1,versionA_stim.csv,ReadVersion.csv,Read,Read1,BIRTHDAY,PIE,Study1,M,9,24,Study,User,-,,Study/JOL,"Study Phase",5918,,,-1,-1,,,,0.533
602454a47d0d7d121a1e444b,1gywxzqn9r,"Mediated Recall_Prolific",1,38,2023-02-06T00:05:58+00:00,2.9509301185608,1,versionA_stim.csv,ReadVersion.csv,Read,Read1,TUNA,FISH,Study1,F,35,26,Study,User,-,,Study/JOL,"Study Phase",2706,,,-1,-1,,,,0.429
602454a47d0d7d121a1e444b,1gywxzqn9r,"Mediated Recall_Prolific",1,39,2023-02-06T00:06:01+00:00,2.9021289348602,1,versionA_stim.csv,ReadVersion.csv,Read,Read1,MIRROR,MAROON,Study1,U,36,35,Study,User,-,,Study/JOL,"Study Phase",2673,,,-1,-1,,,,0.5
602454a47d0d7d121a1e444b,1gywxzqn9r,"Mediated Recall_Prolific",1,40,2023-02-06T00:06:04+00:00,3.0394790172577,1,versionA_stim.csv,ReadVersion.csv,Read,Read1,KEYS,ROD,Study1,U,45,50,Study,User,-,,Study/JOL,"Study Phase",2787,,,-1,-1,,,,0.429
602454a47d0d7d121a1e444b,1gywxzqn9r,"Mediated Recall_Prolific",1,41,2023-02-06T00:06:08+00:00,3.2542400360107,1,versionA_stim.csv,ReadVersion.csv,Read,Read1,STRETCH,CLOTH,Study1,U,37,49,Study,User,-,,Study/JOL,"Study Phase",3019,,,-1,-1,,,,0.6
602454a47d0d7d121a1e444b,1gywxzqn9r,"Mediated Recall_Prolific",1,42,2023-02-06T00:06:10+00:00,2.6768329143524,1,versionA_stim.csv,ReadVersion.csv,Read,Read1,CIRCLE,DANCE,Study1,M,13,20,Study,User,-,,Study/JOL,"Study Phase",2440,,,-1,-1,,,,0.615
602454a47d0d7d121a1e444b,1gywxzqn9r,"Mediated Recall_Prolific",1,43,2023-02-06T00:06:17+00:00,6.5045499801636,1,versionA_stim.csv,ReadVersion.csv,Read,Read1,SIP,DRINK,Study1,F,32,51,Study,User,-,,Study/JOL,"Study Phase",6148,,,-1,-1,,,,0.548
602454a47d0d7d121a1e444b,1gywxzqn9r,"Mediated Recall_Prolific",1,44,2023-02-06T00:06:27+00:00,10.639043092728,1,versionA_stim.csv,ReadVersion.csv,Read,Read1,ORCHID,FLOWER,Study1,F,34,33,Study,User,-,,Study/JOL,"Study Phase",10271,,,-1,-1,,,,0.235
602454a47d0d7d121a1e444b,1gywxzqn9r,"Mediated Recall_Prolific",1,45,2023-02-06T00:06:30+00:00,3.081582069397,1,versionA_stim.csv,ReadVersion.csv,Read,Read1,WAGE,MONEY,Study1,F,22,21,Study,User,-,,Study/JOL,"Study Phase",2827,,,-1,-1,,,,0.429
602454a47d0d7d121a1e444b,1gywxzqn9r,"Mediated Recall_Prolific",1,46,2023-02-06T00:06:34+00:00,3.7980628013611,1,versionA_stim.csv,ReadVersion.csv,Read,Read1,WAR,QUIET,Study1,M,8,34,Study,User,-,,Study/JOL,"Study Phase",3558,,,-1,-1,,,,0.333
602454a47d0d7d121a1e444b,1gywxzqn9r,"Mediated Recall_Prolific",1,47,2023-02-06T00:06:38+00:00,3.9722971916199,1,versionA_stim.csv,ReadVersion.csv,Read,Read1,CEILING,CARPET,Study1,M,15,48,Study,User,-,,Study/JOL,"Study Phase",3735,,,-1,-1,,,,0.526
602454a47d0d7d121a1e444b,1gywxzqn9r,"Mediated Recall_Prolific",1,48,2023-02-06T00:06:42+00:00,3.2534208297729,1,versionA_stim.csv,ReadVersion.csv,Read,Read1,NAP,SLEEP,Study1,F,29,27,Study,User,-,,Study/JOL,"Study Phase",3010,,,-1,-1,,,,0.467
602454a47d0d7d121a1e444b,1gywxzqn9r,"Mediated Recall_Prolific",1,49,2023-02-06T00:06:45+00:00,3.1897320747375,1,versionA_stim.csv,ReadVersion.csv,Read,Read1,MAZE,PHONE,Study1,U,42,47,Study,User,-,,Study/JOL,"Study Phase",2866,,,-1,-1,,,,0.467
602454a47d0d7d121a1e444b,1gywxzqn9r,"Mediated Recall_Prolific",1,50,2023-02-06T00:06:48+00:00,2.9885530471802,1,versionA_stim.csv,ReadVersion.csv,Read,Read1,TREE,SYRUP,Study1,M,11,15,Study,User,-,,Study/JOL,"Study Phase",2728,,,-1,-1,,,,0.429
602454a47d0d7d121a1e444b,1gywxzqn9r,"Mediated Recall_Prolific",1,51,2023-02-06T00:06:51+00:00,3.03959608078,1,versionA_stim.csv,ReadVersion.csv,Read,Read1,BEACH,BOX,Study1,M,7,29,Study,User,-,,Study/JOL,"Study Phase",2796,,,-1,-1,,,,0.5
602454a47d0d7d121a1e444b,1gywxzqn9r,"Mediated Recall_Prolific",1,52,2023-02-06T00:06:53+00:00,2.6390128135681,1,versionA_stim.csv,ReadVersion.csv,Read,Read1,ROOT,PLANT,Study1,F,25,10,Study,User,-,,Study/JOL,"Study Phase",2403,,,-1,-1,,,,0.417
602454a47d0d7d121a1e444b,1gywxzqn9r,"Mediated Recall_Prolific",1,53,2023-02-06T00:06:56+00:00,2.923611164093,1,versionA_stim.csv,ReadVersion.csv,Read,Read1,TOOL,SHED,BUFFER3,Buffer,58,60,Study,User,-,,Study/JOL,BUFFER2,2680,,,-1,-1,,,,0.5
602454a47d0d7d121a1e444b,1gywxzqn9r,"Mediated Recall_Prolific",1,54,2023-02-06T00:06:59+00:00,3.0673978328705,1,versionA_stim.csv,ReadVersion.csv,Read,Read1,NOODLE,STRING,BUFFER4,Buffer,107,109,Study,User,-,,Study/JOL,BUFFER2,2835,,,-1,-1,,,,0.5
602454a47d0d7d121a1e444b,1gywxzqn9r,"Mediated Recall_Prolific",1,55,2023-02-06T00:07:02+00:00,2.6224031448364,1,versionA_stim.csv,ReadVersion.csv,Read,Read1,ICE,FROZEN,BUFFER4,Buffer,109,110,Study,User,-,,Study/JOL,BUFFER2,2388,,,-1,-1,,,,0.5
602454a47d0d7d121a1e444b,1gywxzqn9r,"Mediated Recall_Prolific",1,56,2023-02-06T00:07:05+00:00,2.9834740161896,1,versionA_stim.csv,ReadVersion.csv,Read,Read1,SHRIMP,FISH,BUFFER4,Buffer,108,107,Study,User,-,,Study/JOL,BUFFER2,2748,,,-1,-1,,,,0.5
602454a47d0d7d121a1e444b,1gywxzqn9r,"Mediated Recall_Prolific",1,57,2023-02-06T00:07:08+00:00,3.0282108783722,1,versionA_stim.csv,ReadVersion.csv,Read,Read1,OCTOBER,SPOOKY,BUFFER3,Buffer,60,58,Study,User,-,,Study/JOL,BUFFER2,2807,,,-1,-1,,,,0.5
602454a47d0d7d121a1e444b,1gywxzqn9r,"Mediated Recall_Prolific",1,58,2023-02-06T00:07:10+00:00,1.7625379562378,1,versionA_stim.csv,ReadVersion.csv,Read,Read1,,,,,,0,Instruct,User,-,"You have completed this section. Please press Enter.",Filler_Instruction,Instruct2,1518,,,-1,-1,,,,1
602454a47d0d7d121a1e444b,1gywxzqn9r,"Mediated Recall_Prolific",1,59,2023-02-06T00:09:10+00:00,120.3727440834,1,versionA_stim.csv,ReadVersion.csv,Read,Read1,,,,,,0,FreeRecall,120,120,"Please list the 50 US states in alphabetical order. The task will automatically advance to the next screen after two minutes.",,Filler1,120008,"Alabama, Alaska, Arizona, Arkansas, California, Colorado, Connecticut, Florida, Georgia, Hawaii, Idaho, Illinois, Indiana, ",0,37774,48342,0,0,,0.182
602454a47d0d7d121a1e444b,1gywxzqn9r,"Mediated Recall_Prolific",1,60,2023-02-06T00:11:33+00:00,142.54024791718,1,versionA_stim.csv,ReadVersion.csv,Read,Read1,,,,,,0,Instruct,-,10,"You will now be presented with the first word from each of the previously studied item pairs. Please type the missing word. If you do not know the word, you may guess or press Enter to skip forward to the next pair.",,Instruct3,142158,,,-1,-1,,,,0.024
602454a47d0d7d121a1e444b,1gywxzqn9r,"Mediated Recall_Prolific",1,61,2023-02-06T00:11:39+00:00,6.3876881599426,1,versionA_stim.csv,ReadVersion.csv,Read,Read1,CEILING,CARPET,Study1,M,15,48,Test,User,-,,Recall,Recall1,5990,CARPET,100,4240,4948,1,1,,1
602454a47d0d7d121a1e444b,1gywxzqn9r,"Mediated Recall_Prolific",1,62,2023-02-06T00:11:50+00:00,10.640168905258,1,versionA_stim.csv,ReadVersion.csv,Read,Read1,SOON,BELT,Study1,U,46,14,Test,User,-,,Recall,Recall1,10280,LATER,44.444444444444,9075,9445,0,0,,1
602454a47d0d7d121a1e444b,1gywxzqn9r,"Mediated Recall_Prolific",1,63,2023-02-06T00:12:14+00:00,23.877728939056,1,versionA_stim.csv,ReadVersion.csv,Read,Read1,WORD,SENTENCE,Study1,F,27,40,Test,User,-,,Recall,Recall1,23530,SENTENCE,100,21256,22462,1,1,,0.256
602454a47d0d7d121a1e444b,1gywxzqn9r,"Mediated Recall_Prolific",1,64,2023-02-06T00:12:19+00:00,5.872946023941,1,versionA_stim.csv,ReadVersion.csv,Read,Read1,LITTER,TRASH,Study1,F,21,12,Test,User,-,,Recall,Recall1,5483,TRASH,100,4071,4844,1,1,,0.536
602454a47d0d7d121a1e444b,1gywxzqn9r,"Mediated Recall_Prolific",1,65,2023-02-06T00:12:34+00:00,14.173064947128,1,versionA_stim.csv,ReadVersion.csv,Read,Read1,FUZZY,BANG,Study1,U,50,41,Test,User,-,,Recall,Recall1,13814,SOFT,0,12517,12841,0,0,,0.42
602454a47d0d7d121a1e444b,1gywxzqn9r,"Mediated Recall_Prolific",1,66,2023-02-06T00:12:41+00:00,7.6153500080109,1,versionA_stim.csv,ReadVersion.csv,Read,Read1,AFFECTION,LOVE,Study1,F,31,44,Test,User,-,,Recall,Recall1,7241,LOVE,100,6195,6457,1,1,,0.5
602454a47d0d7d121a1e444b,1gywxzqn9r,"Mediated Recall_Prolific",1,67,2023-02-06T00:12:48+00:00,6.4899611473083,1,versionA_stim.csv,ReadVersion.csv,Read,Read1,GIVE,STEAK,Study1,U,38,19,Test,User,-,,Recall,Recall1,6136,TAKE,66.666666666667,4979,5287,0,0,,0.613
602454a47d0d7d121a1e444b,1gywxzqn9r,"Mediated Recall_Prolific",1,68,2023-02-06T00:14:06+00:00,78.128146886826,1,versionA_stim.csv,ReadVersion.csv,Read,Read1,MULE,DONKEY,Study1,F,30,8,Test,User,-,,Recall,Recall1,77784,DONKEY,100,76360,76873,1,1,,0.052
602454a47d0d7d121a1e444b,1gywxzqn9r,"Mediated Recall_Prolific",1,69,2023-02-06T00:14:11+00:00,5.6352391242981,1,versionA_stim.csv,ReadVersion.csv,Read,Read1,ROOT,PLANT,Study1,F,25,10,Test,User,-,,Recall,Recall1,5256,PLANT,100,3937,4287,1,1,,0.615
602454a47d0d7d121a1e444b,1gywxzqn9r,"Mediated Recall_Prolific",1,70,2023-02-06T00:14:24+00:00,12.497351884842,1,versionA_stim.csv,ReadVersion.csv,Read,Read1,NAP,SLEEP,Study1,F,29,27,Test,User,-,,Recall,Recall1,12150,SLEEP,100,10723,11147,1,1,,0.317
602454a47d0d7d121a1e444b,1gywxzqn9r,"Mediated Recall_Prolific",1,71,2023-02-06T00:14:32+00:00,7.6297719478607,1,versionA_stim.csv,ReadVersion.csv,Read,Read1,MIRROR,MAROON,Study1,U,36,35,Test,User,-,,Recall,Recall1,7268,REFLECTION,37.5,5465,6275,0,0,,0.639
602454a47d0d7d121a1e444b,1gywxzqn9r,"Mediated Recall_Prolific",1,72,2023-02-06T00:15:34+00:00,62.291161060333,1,versionA_stim.csv,ReadVersion.csv,Read,Read1,ORCHID,FLOWER,Study1,F,34,33,Test,User,-,,Recall,Recall1,61941,FLOWER,100,60619,61159,1,1,,0.059
602454a47d0d7d121a1e444b,1gywxzqn9r,"Mediated Recall_Prolific",1,73,2023-02-06T00:15:48+00:00,14.38896894455,1,versionA_stim.csv,ReadVersion.csv,Read,Read1,BIRTHDAY,PIE,Study1,M,9,24,Test,User,-,,Recall,Recall1,14010,PIE,100,12821,12965,1,1,,0.371
602454a47d0d7d121a1e444b,1gywxzqn9r,"Mediated Recall_Prolific",1,74,2023-02-06T00:15:51+00:00,2.9803609848022,1,versionA_stim.csv,ReadVersion.csv,Read,Read1,DAY,DARK,Study1,M,18,36,Test,User,-,,Recall,Recall1,2730,NIGHT,0,2289,2612,0,0,,0.357
602454a47d0d7d121a1e444b,1gywxzqn9r,"Mediated Recall_Prolific",1,75,2023-02-06T00:15:59+00:00,7.5621302127838,1,versionA_stim.csv,ReadVersion.csv,Read,Read1,HORSE,WHEEL,Study1,M,14,39,Test,User,-,,Recall,Recall1,7200,FLY,25,1509,1716,0,0,,0.472
602454a47d0d7d121a1e444b,1gywxzqn9r,"Mediated Recall_Prolific",1,76,2023-02-06T00:16:06+00:00,7.0666508674622,1,versionA_stim.csv,ReadVersion.csv,Read,Read1,KEYS,ROD,Study1,U,45,50,Test,User,-,,Recall,Recall1,6703,OPEN,28.571428571429,6333,6540,0,0,,0.412
602454a47d0d7d121a1e444b,1gywxzqn9r,"Mediated Recall_Prolific",1,77,2023-02-06T00:16:10+00:00,3.984512090683,1,versionA_stim.csv,ReadVersion.csv,Read,Read1,TEMPERATURE,MORNING,Study1,U,48,23,Test,User,-,,Recall,Recall1,3758,MORNING,100,3172,3604,1,1,,1
602454a47d0d7d121a1e444b,1gywxzqn9r,"Mediated Recall_Prolific",1,78,2023-02-06T00:16:12+00:00,2.0796220302582,1,versionA_stim.csv,ReadVersion.csv,Read,Read1,TOOTH,HAIR,Study1,M,19,16,Test,User,-,,Recall,Recall1,1854,DECAY,22.222222222222,1203,1672,0,0,,1
602454a47d0d7d121a1e444b,1gywxzqn9r,"Mediated Recall_Prolific",1,79,2023-02-06T00:16:20+00:00,7.8994419574738,1,versionA_stim.csv,ReadVersion.csv,Read,Read1,CRY,BOTTLE,Study1,M,16,32,Test,User,-,,Recall,Recall1,7550,BOTTLE,100,1385,7485,1,1,,0.658
602454a47d0d7d121a1e444b,1gywxzqn9r,"Mediated Recall_Prolific",1,80,2023-02-06T00:16:41+00:00,21.347508907318,1,versionA_stim.csv,ReadVersion.csv,Read,Read1,SHELL,SHAKE,Study1,U,43,37,Test,User,-,,Recall,Recall1,21005,EMPTY,20,20410,20806,0,0,,0.115
602454a47d0d7d121a1e444b,1gywxzqn9r,"Mediated Recall_Prolific",1,81,2023-02-06T00:16:53+00:00,12.108926057816,1,versionA_stim.csv,ReadVersion.csv,Read,Read1,CRACKLE,ELECTION,Study1,U,39,13,Test,User,-,,Recall,Recall1,11767,ELECTRICITY,63.157894736842,7610,10463,0,0,,0.525
602454a47d0d7d121a1e444b,1gywxzqn9r,"Mediated Recall_Prolific",1,82,2023-02-06T00:16:55+00:00,1.9726769924164,1,versionA_stim.csv,ReadVersion.csv,Read,Read1,HARD,COTTON,Study1,M,20,28,Test,User,-,,Recall,Recall1,1745,SOFT,40,1269,1619,0,0,,1
602454a47d0d7d121a1e444b,1gywxzqn9r,"Mediated Recall_Prolific",1,83,2023-02-06T00:16:57+00:00,2.1874799728394,1,versionA_stim.csv,ReadVersion.csv,Read,Read1,LION,STRIPES,Study1,M,6,9,Test,User,-,,Recall,Recall1,1957,ROAR,18.181818181818,1245,1839,0,0,,1
602454a47d0d7d121a1e444b,1gywxzqn9r,"Mediated Recall_Prolific",1,84,2023-02-06T00:17:00+00:00,2.8748350143433,1,versionA_stim.csv,ReadVersion.csv,Read,Read1,MEAT,KEYS,Study1,U,41,43,Test,User,-,,Recall,Recall1,2640,SANDWICH,16.666666666667,1856,2479,0,0,,1
602454a47d0d7d121a1e444b,1gywxzqn9r,"Mediated Recall_Prolific",1,85,2023-02-06T00:17:16+00:00,16.084585905075,1,versionA_stim.csv,ReadVersion.csv,Read,Read1,SIP,DRINK,Study1,F,32,51,Test,User,-,,Recall,Recall1,15727,DRINK,100,13812,15546,1,1,,0.436
602454a47d0d7d121a1e444b,1gywxzqn9r,"Mediated Recall_Prolific",1,86,2023-02-06T00:17:22+00:00,5.820365190506,1,versionA_stim.csv,ReadVersion.csv,Read,Read1,STRETCH,CLOTH,Study1,U,37,49,Test,User,-,,Recall,Recall1,5464,CLOTH,100,4923,5311,1,1,,0.556
602454a47d0d7d121a1e444b,1gywxzqn9r,"Mediated Recall_Prolific",1,87,2023-02-06T00:17:28+00:00,5.6570990085602,1,versionA_stim.csv,ReadVersion.csv,Read,Read1,CIRCLE,DANCE,Study1,M,13,20,Test,User,-,,Recall,Recall1,5301,SQAURE,36.363636363636,4472,5138,0,0,,0.593
602454a47d0d7d121a1e444b,1gywxzqn9r,"Mediated Recall_Prolific",1,88,2023-02-06T00:17:33+00:00,4.83793592453,1,versionA_stim.csv,ReadVersion.csv,Read,Read1,BEACH,BOX,Study1,M,7,29,Test,User,-,,Recall,Recall1,4608,BLAST,25,4112,4446,0,0,,0.522
602454a47d0d7d121a1e444b,1gywxzqn9r,"Mediated Recall_Prolific",1,89,2023-02-06T00:17:39+00:00,5.9488198757172,1,versionA_stim.csv,ReadVersion.csv,Read,Read1,TREE,SYRUP,Study1,M,11,15,Test,User,-,,Recall,Recall1,5611,GREEN,20,5026,5467,0,0,,0.464
602454a47d0d7d121a1e444b,1gywxzqn9r,"Mediated Recall_Prolific",1,90,2023-02-06T00:17:46+00:00,7.2267570495605,1,versionA_stim.csv,ReadVersion.csv,Read,Read1,VEHICLE,CHARM,Study1,U,40,22,Test,User,-,,Recall,Recall1,6877,BIKE,0,6406,6750,0,0,,0.765
602454a47d0d7d121a1e444b,1gywxzqn9r,"Mediated Recall_Prolific",1,91,2023-02-06T00:17:51+00:00,4.9290730953217,1,versionA_stim.csv,ReadVersion.csv,Read,Read1,WAR,QUIET,Study1,M,8,34,Test,User,-,,Recall,Recall1,4703,QUIET,100,4243,4522,1,1,,1
602454a47d0d7d121a1e444b,1gywxzqn9r,"Mediated Recall_Prolific",1,92,2023-02-06T00:17:58+00:00,7.2069430351257,1,versionA_stim.csv,ReadVersion.csv,Read,Read1,MAZE,PHONE,Study1,U,42,47,Test,User,-,,Recall,Recall1,6863,SCARY,0,6322,6691,0,0,,1
602454a47d0d7d121a1e444b,1gywxzqn9r,"Mediated Recall_Prolific",1,93,2023-02-06T00:18:03+00:00,4.9238209724426,1,versionA_stim.csv,ReadVersion.csv,Read,Read1,SCALP,HEAD,Study1,F,23,46,Test,User,-,,Recall,Recall1,4694,HEAD,100,4387,4611,1,1,,1
602454a47d0d7d121a1e444b,1gywxzqn9r,"Mediated Recall_Prolific",1,94,2023-02-06T00:18:05+00:00,1.7367880344391,1,versionA_stim.csv,ReadVersion.csv,Read,Read1,WAGE,MONEY,Study1,F,22,21,Test,User,-,,Recall,Recall1,1492,LOW,25,1205,1412,0,0,,1
602454a47d0d7d121a1e444b,1gywxzqn9r,"Mediated Recall_Prolific",1,95,2023-02-06T00:18:07+00:00,2.1204209327698,1,versionA_stim.csv,ReadVersion.csv,Read,Read1,SWAN,BIRD,Study1,F,26,11,Test,User,-,,Recall,Recall1,1877,BIRD,100,1442,1776,1,1,,1
602454a47d0d7d121a1e444b,1gywxzqn9r,"Mediated Recall_Prolific",1,96,2023-02-06T00:18:08+00:00,1.6288449764252,1,versionA_stim.csv,ReadVersion.csv,Read,Read1,CREDIT,CARD,Study1,F,33,31,Test,User,-,,Recall,Recall1,1392,CARD,100,996,1311,1,1,,1
602454a47d0d7d121a1e444b,1gywxzqn9r,"Mediated Recall_Prolific",1,97,2023-02-06T00:18:13+00:00,4.6032600402832,1,versionA_stim.csv,ReadVersion.csv,Read,Read1,HYGIENE,CLEAN,Study1,F,28,30,Test,User,-,,Recall,Recall1,4368,CLEAN,100,3790,4178,1,1,,0.591
602454a47d0d7d121a1e444b,1gywxzqn9r,"Mediated Recall_Prolific",1,98,2023-02-06T00:18:18+00:00,4.9819569587708,1,versionA_stim.csv,ReadVersion.csv,Read,Read1,CAKE,HAND,Study1,U,49,38,Test,User,-,,Recall,Recall1,4752,HAND,100,4409,4651,1,1,,0.625
602454a47d0d7d121a1e444b,1gywxzqn9r,"Mediated Recall_Prolific",1,99,2023-02-06T00:18:24+00:00,6.3522219657898,1,versionA_stim.csv,ReadVersion.csv,Read,Read1,LISTEN,FICTION,Study1,U,44,7,Test,User,-,,Recall,Recall1,5995,IGNORE,30.769230769231,5399,5868,0,0,,0.733
602454a47d0d7d121a1e444b,1gywxzqn9r,"Mediated Recall_Prolific",1,100,2023-02-06T00:18:27+00:00,3.0439810752869,1,versionA_stim.csv,ReadVersion.csv,Read,Read1,ROUGH,SILK,Study1,M,10,25,Test,User,-,,Recall,Recall1,2812,SMOOTH,20,2010,2569,0,0,,1
602454a47d0d7d121a1e444b,1gywxzqn9r,"Mediated Recall_Prolific",1,101,2023-02-06T00:18:30+00:00,2.0314040184021,1,versionA_stim.csv,ReadVersion.csv,Read,Read1,MULE,DONKEY,Study1,F,24,17,Test,User,-,,Recall,Recall1,1803,DONKEY,100,1197,1577,1,1,,1
602454a47d0d7d121a1e444b,1gywxzqn9r,"Mediated Recall_Prolific",1,102,2023-02-06T00:18:36+00:00,6.1115028858185,1,versionA_stim.csv,ReadVersion.csv,Read,Read1,BAT,BOUNCE,Study1,M,12,42,Test,User,-,,Recall,Recall1,5756,CAT,22.222222222222,5476,5665,0,0,,0.828
602454a47d0d7d121a1e444b,1gywxzqn9r,"Mediated Recall_Prolific",1,103,2023-02-06T00:18:37+00:00,1.7085750102997,1,versionA_stim.csv,ReadVersion.csv,Read,Read1,WEDDING,FINGER,Study1,M,17,18,Test,User,-,,Recall,Recall1,1447,OFF,22.222222222222,1150,1340,0,0,,1
602454a47d0d7d121a1e444b,1gywxzqn9r,"Mediated Recall_Prolific",1,104,2023-02-06T00:18:39+00:00,2.1158871650696,1,versionA_stim.csv,ReadVersion.csv,Read,Read1,TUNA,FISH,Study1,F,35,26,Test,User,-,,Recall,Recall1,1891,SANDWICH,33.333333333333,1007,1674,0,0,,1
602454a47d0d7d121a1e444b,1gywxzqn9r,"Mediated Recall_Prolific",1,105,2023-02-06T00:18:44+00:00,4.3514008522034,1,versionA_stim.csv,ReadVersion.csv,Read,Read1,SIGN,TICK,Study1,U,47,45,Test,User,-,,Recall,Recall1,4120,TICK,100,3499,3822,1,1,,1
602454a47d0d7d121a1e444b,1gywxzqn9r,"Mediated Recall_Prolific",1,106,2023-02-06T00:20:08+00:00,84.010301113129,1,versionA_stim.csv,ReadVersion.csv,Read,Read1,,,,,,0,Instruct,-,10,"You will now be presented with a new set of word pairs. Please study each pair. Remember that your memory will be tested! When finished, press Enter to move to the next pair.",Initial_Instruct,Instruct4,83666,,,-1,-1,,,,0.133
602454a47d0d7d121a1e444b,1gywxzqn9r,"Mediated Recall_Prolific",1,107,2023-02-06T00:20:10+00:00,1.8608629703522,1,versionA_stim.csv,ReadVersion.csv,Read,Read1,,,,,,0,Instruct,User,-,"Press Enter when you are readty to begin",,Instruct11,1579,,,-1,-1,,,,1
602454a47d0d7d121a1e444b,1gywxzqn9r,"Mediated Recall_Prolific",1,108,2023-02-06T00:20:17+00:00,6.858372926712,1,versionA_stim.csv,ReadVersion.csv,Read,Read1,MONTH,YEAR,BUFFER3,Buffer,57,59,Study,User,-,,Study/JOL,BUFFER2,6489,,,-1,-1,,,,0.333
602454a47d0d7d121a1e444b,1gywxzqn9r,"Mediated Recall_Prolific",1,109,2023-02-06T00:20:18+00:00,1.7312619686127,1,versionA_stim.csv,ReadVersion.csv,Read,Read1,CAMP,ADVENTURE,BUFFER4,Buffer,110,111,Study,User,-,,Study/JOL,BUFFER2,1456,,,-1,-1,,,,1
602454a47d0d7d121a1e444b,1gywxzqn9r,"Mediated Recall_Prolific",1,110,2023-02-06T00:20:19+00:00,1.0413091182709,1,versionA_stim.csv,ReadVersion.csv,Read,Read1,MOON,SPACE,BUFFER2,Buffer,54,53,Study,User,-,,Study/JOL,BUFFER2,796,,,-1,-1,,,,1
602454a47d0d7d121a1e444b,1gywxzqn9r,"Mediated Recall_Prolific",1,111,2023-02-06T00:20:20+00:00,0.96965193748474,1,versionA_stim.csv,ReadVersion.csv,Read,Read1,THING,STUFF,BUFFER2,Buffer,55,56,Study,User,-,,Study/JOL,BUFFER2,738,,,-1,-1,,,,1
602454a47d0d7d121a1e444b,1gywxzqn9r,"Mediated Recall_Prolific",1,112,2023-02-06T00:20:26+00:00,5.3634910583496,1,versionA_stim.csv,ReadVersion.csv,Read,Read1,GEESE,GOOSE,BUFFER2,Buffer,51,52,Study,User,-,,Study/JOL,BUFFER2,5014,,,-1,-1,,,,0.12
602454a47d0d7d121a1e444b,1gywxzqn9r,"Mediated Recall_Prolific",1,113,2023-02-06T00:20:39+00:00,13.645580053329,1,versionA_stim.csv,ReadVersion.csv,Read,Read1,HEAVY,FEATHER,Study2,M,68,84,Study,User,-,,Study/JOL,"Study Phase2",13258,,,-1,-1,,,,0.076
602454a47d0d7d121a1e444b,1gywxzqn9r,"Mediated Recall_Prolific",1,114,2023-02-06T00:20:41+00:00,1.590343952179,1,versionA_stim.csv,ReadVersion.csv,Read,Read1,BOTH,OUNCE,Study2,U,102,64,Study,User,-,,Study/JOL,"Study Phase2",1372,,,-1,-1,,,,1
602454a47d0d7d121a1e444b,1gywxzqn9r,"Mediated Recall_Prolific",1,115,2023-02-06T00:20:42+00:00,0.93030190467834,1,versionA_stim.csv,ReadVersion.csv,Read,Read1,ART,WOLF,Study2,U,93,86,Study,User,-,,Study/JOL,"Study Phase2",711,,,-1,-1,,,,1
602454a47d0d7d121a1e444b,1gywxzqn9r,"Mediated Recall_Prolific",1,116,2023-02-06T00:20:43+00:00,1.249892950058,1,versionA_stim.csv,ReadVersion.csv,Read,Read1,DOCUMENT,PAPER,Study2,F,82,102,Study,User,-,,Study/JOL,"Study Phase2",1024,,,-1,-1,,,,1
602454a47d0d7d121a1e444b,1gywxzqn9r,"Mediated Recall_Prolific",1,117,2023-02-06T00:20:44+00:00,1.1271531581879,1,versionA_stim.csv,ReadVersion.csv,Read,Read1,LEAGUE,BASEBALL,Study2,F,84,82,Study,User,-,,Study/JOL,"Study Phase2",913,,,-1,-1,,,,1
602454a47d0d7d121a1e444b,1gywxzqn9r,"Mediated Recall_Prolific",1,118,2023-02-06T00:20:46+00:00,1.368861913681,1,versionA_stim.csv,ReadVersion.csv,Read,Read1,CHERRY,RED,Study2,F,80,89,Study,User,-,,Study/JOL,"Study Phase2",1144,,,-1,-1,,,,1
602454a47d0d7d121a1e444b,1gywxzqn9r,"Mediated Recall_Prolific",1,119,2023-02-06T00:20:47+00:00,1.0757029056549,1,versionA_stim.csv,ReadVersion.csv,Read,Read1,SOAP,DRINK,Study2,M,67,96,Study,User,-,,Study/JOL,"Study Phase2",854,,,-1,-1,,,,1
602454a47d0d7d121a1e444b,1gywxzqn9r,"Mediated Recall_Prolific",1,120,2023-02-06T00:20:48+00:00,1.1035811901093,1,versionA_stim.csv,ReadVersion.csv,Read,Read1,DEATH,BUSINESS,Study2,U,99,78,Study,User,-,,Study/JOL,"Study Phase2",873,,,-1,-1,,,,1
602454a47d0d7d121a1e444b,1gywxzqn9r,"Mediated Recall_Prolific",1,121,2023-02-06T00:20:49+00:00,0.94027400016785,1,versionA_stim.csv,ReadVersion.csv,Read,Read1,BRIDGE,WATER,Study2,F,90,94,Study,User,-,,Study/JOL,"Study Phase2",716,,,-1,-1,,,,1
602454a47d0d7d121a1e444b,1gywxzqn9r,"Mediated Recall_Prolific",1,122,2023-02-06T00:20:50+00:00,0.85361385345459,1,versionA_stim.csv,ReadVersion.csv,Read,Read1,CHOP,CUT,Study2,F,77,90,Study,User,-,,Study/JOL,"Study Phase2",620,,,-1,-1,,,,1
602454a47d0d7d121a1e444b,1gywxzqn9r,"Mediated Recall_Prolific",1,123,2023-02-06T00:20:50+00:00,0.88111710548401,1,versionA_stim.csv,ReadVersion.csv,Read,Read1,BENCH,HORN,Study2,U,98,98,Study,User,-,,Study/JOL,"Study Phase2",660,,,-1,-1,,,,1
602454a47d0d7d121a1e444b,1gywxzqn9r,"Mediated Recall_Prolific",1,124,2023-02-06T00:20:51+00:00,0.9048900604248,1,versionA_stim.csv,ReadVersion.csv,Read,Read1,SUGAR,RIDDLE,Study2,U,95,62,Study,User,-,,Study/JOL,"Study Phase2",676,,,-1,-1,,,,1
602454a47d0d7d121a1e444b,1gywxzqn9r,"Mediated Recall_Prolific",1,125,2023-02-06T00:20:52+00:00,0.8787989616394,1,versionA_stim.csv,ReadVersion.csv,Read,Read1,HERD,COW,Study2,F,88,76,Study,User,-,,Study/JOL,"Study Phase2",638,,,-1,-1,,,,1
602454a47d0d7d121a1e444b,1gywxzqn9r,"Mediated Recall_Prolific",1,126,2023-02-06T00:20:53+00:00,0.67867803573608,1,versionA_stim.csv,ReadVersion.csv,Read,Read1,OVEN,BASKET,Study2,M,71,103,Study,User,-,,Study/JOL,"Study Phase2",454,,,-1,-1,,,,1
602454a47d0d7d121a1e444b,1gywxzqn9r,"Mediated Recall_Prolific",1,127,2023-02-06T00:20:54+00:00,0.72158193588257,1,versionA_stim.csv,ReadVersion.csv,Read,Read1,CACTUS,PLANT,Study2,F,76,68,Study,User,-,,Study/JOL,"Study Phase2",490,,,-1,-1,,,,1
602454a47d0d7d121a1e444b,1gywxzqn9r,"Mediated Recall_Prolific",1,128,2023-02-06T00:20:55+00:00,1.1799750328064,1,versionA_stim.csv,ReadVersion.csv,Read,Read1,BLAZE,FIRE,Study2,F,81,71,Study,User,-,,Study/JOL,"Study Phase2",956,,,-1,-1,,,,1
602454a47d0d7d121a1e444b,1gywxzqn9r,"Mediated Recall_Prolific",1,129,2023-02-06T00:20:56+00:00,0.82630085945129,1,versionA_stim.csv,ReadVersion.csv,Read,Read1,SUMMER,SNOW,Study2,M,61,72,Study,User,-,,Study/JOL,"Study Phase2",592,,,-1,-1,,,,1
602454a47d0d7d121a1e444b,1gywxzqn9r,"Mediated Recall_Prolific",1,130,2023-02-06T00:20:57+00:00,1.2614281177521,1,versionA_stim.csv,ReadVersion.csv,Read,Read1,EYES,SMELL,Study2,M,65,83,Study,User,-,,Study/JOL,"Study Phase2",1038,,,-1,-1,,,,1
602454a47d0d7d121a1e444b,1gywxzqn9r,"Mediated Recall_Prolific",1,131,2023-02-06T00:20:58+00:00,1.0859680175781,1,versionA_stim.csv,ReadVersion.csv,Read,Read1,ARTERY,BRONZE,Study2,U,103,69,Study,User,-,,Study/JOL,"Study Phase2",871,,,-1,-1,,,,1
602454a47d0d7d121a1e444b,1gywxzqn9r,"Mediated Recall_Prolific",1,132,2023-02-06T00:20:59+00:00,0.84019589424133,1,versionA_stim.csv,ReadVersion.csv,Read,Read1,HAPPY,CAR,Study2,U,92,99,Study,User,-,,Study/JOL,"Study Phase2",618,,,-1,-1,,,,1
602454a47d0d7d121a1e444b,1gywxzqn9r,"Mediated Recall_Prolific",1,133,2023-02-06T00:21:00+00:00,0.83148503303528,1,versionA_stim.csv,ReadVersion.csv,Read,Read1,CASH,LEG,Study2,U,105,70,Study,User,-,,Study/JOL,"Study Phase2",602,,,-1,-1,,,,1
602454a47d0d7d121a1e444b,1gywxzqn9r,"Mediated Recall_Prolific",1,134,2023-02-06T00:21:01+00:00,0.96964597702026,1,versionA_stim.csv,ReadVersion.csv,Read,Read1,CHILL,COLD,Study2,F,87,80,Study,User,-,,Study/JOL,"Study Phase2",736,,,-1,-1,,,,1
602454a47d0d7d121a1e444b,1gywxzqn9r,"Mediated Recall_Prolific",1,135,2023-02-06T00:21:01+00:00,0.88957810401917,1,versionA_stim.csv,ReadVersion.csv,Read,Read1,WINDOW,KNOB,Study2,M,74,105,Study,User,-,,Study/JOL,"Study Phase2",671,,,-1,-1,,,,1
602454a47d0d7d121a1e444b,1gywxzqn9r,"Mediated Recall_Prolific",1,136,2023-02-06T00:21:02+00:00,0.87172698974609,1,versionA_stim.csv,ReadVersion.csv,Read,Read1,PUSH,CLUTTER,Study2,U,96,95,Study,User,-,,Study/JOL,"Study Phase2",640,,,-1,-1,,,,1
602454a47d0d7d121a1e444b,1gywxzqn9r,"Mediated Recall_Prolific",1,137,2023-02-06T00:21:03+00:00,0.70896291732788,1,versionA_stim.csv,ReadVersion.csv,Read,Read1,WASP,BUG,Study2,F,89,104,Study,User,-,,Study/JOL,"Study Phase2",487,,,-1,-1,,,,1
602454a47d0d7d121a1e444b,1gywxzqn9r,"Mediated Recall_Prolific",1,138,2023-02-06T00:21:04+00:00,1.1690049171448,1,versionA_stim.csv,ReadVersion.csv,Read,Read1,VALLEY,PEAK,Study2,M,73,88,Study,User,-,,Study/JOL,"Study Phase2",942,,,-1,-1,,,,1
602454a47d0d7d121a1e444b,1gywxzqn9r,"Mediated Recall_Prolific",1,139,2023-02-06T00:21:05+00:00,0.79529809951782,1,versionA_stim.csv,ReadVersion.csv,Read,Read1,MIRROR,CHILDREN,Study2,U,104,74,Study,User,-,,Study/JOL,"Study Phase2",571,,,-1,-1,,,,1
602454a47d0d7d121a1e444b,1gywxzqn9r,"Mediated Recall_Prolific",1,140,2023-02-06T00:21:06+00:00,0.75136399269104,1,versionA_stim.csv,ReadVersion.csv,Read,Read1,INCENSE,SMELL,Study2,F,83,67,Study,User,-,,Study/JOL,"Study Phase2",499,,,-1,-1,,,,1
602454a47d0d7d121a1e444b,1gywxzqn9r,"Mediated Recall_Prolific",1,141,2023-02-06T00:21:07+00:00,0.96886897087097,1,versionA_stim.csv,ReadVersion.csv,Read,Read1,DIETARY,SACK,Study2,U,97,100,Study,User,-,,Study/JOL,"Study Phase2",747,,,-1,-1,,,,1
602454a47d0d7d121a1e444b,1gywxzqn9r,"Mediated Recall_Prolific",1,142,2023-02-06T00:21:08+00:00,1.2686269283295,1,versionA_stim.csv,ReadVersion.csv,Read,Read1,FEUD,FIGHT,Study2,F,86,81,Study,User,-,,Study/JOL,"Study Phase2",1042,,,-1,-1,,,,1
602454a47d0d7d121a1e444b,1gywxzqn9r,"Mediated Recall_Prolific",1,143,2023-02-06T00:21:09+00:00,1.1300010681152,1,versionA_stim.csv,ReadVersion.csv,Read,Read1,STRONG,ACCIDENT,Study2,U,94,93,Study,User,-,,Study/JOL,"Study Phase2",889,,,-1,-1,,,,1
602454a47d0d7d121a1e444b,1gywxzqn9r,"Mediated Recall_Prolific",1,144,2023-02-06T00:21:10+00:00,0.83088803291321,1,versionA_stim.csv,ReadVersion.csv,Read,Read1,REALITY,ISLAND,Study2,M,64,79,Study,User,-,,Study/JOL,"Study Phase2",611,,,-1,-1,,,,1
602454a47d0d7d121a1e444b,1gywxzqn9r,"Mediated Recall_Prolific",1,145,2023-02-06T00:21:11+00:00,0.82477498054504,1,versionA_stim.csv,ReadVersion.csv,Read,Read1,RAZOR,MUSCLE,Study2,M,75,77,Study,User,-,,Study/JOL,"Study Phase2",594,,,-1,-1,,,,1
602454a47d0d7d121a1e444b,1gywxzqn9r,"Mediated Recall_Prolific",1,146,2023-02-06T00:21:12+00:00,0.77416110038757,1,versionA_stim.csv,ReadVersion.csv,Read,Read1,ATTIRE,CLOTHES,Study2,F,79,91,Study,User,-,,Study/JOL,"Study Phase2",547,,,-1,-1,,,,1
602454a47d0d7d121a1e444b,1gywxzqn9r,"Mediated Recall_Prolific",1,147,2023-02-06T00:21:12+00:00,0.85903596878052,1,versionA_stim.csv,ReadVersion.csv,Read,Read1,NURSE,LAWYER,Study2,M,66,97,Study,User,-,,Study/JOL,"Study Phase2",611,,,-1,-1,,,,1
602454a47d0d7d121a1e444b,1gywxzqn9r,"Mediated Recall_Prolific",1,148,2023-02-06T00:21:13+00:00,0.89945101737976,1,versionA_stim.csv,ReadVersion.csv,Read,Read1,SICK,HIDE,Study2,U,100,87,Study,User,-,,Study/JOL,"Study Phase2",672,,,-1,-1,,,,1
602454a47d0d7d121a1e444b,1gywxzqn9r,"Mediated Recall_Prolific",1,149,2023-02-06T00:21:14+00:00,0.85028100013733,1,versionA_stim.csv,ReadVersion.csv,Read,Read1,TRAP,CAVE,Study2,M,70,75,Study,User,-,,Study/JOL,"Study Phase2",621,,,-1,-1,,,,1
602454a47d0d7d121a1e444b,1gywxzqn9r,"Mediated Recall_Prolific",1,150,2023-02-06T00:21:15+00:00,0.90805101394653,1,versionA_stim.csv,ReadVersion.csv,Read,Read1,CHISEL,HAMMER,Study2,F,78,101,Study,User,-,,Study/JOL,"Study Phase2",676,,,-1,-1,,,,1
602454a47d0d7d121a1e444b,1gywxzqn9r,"Mediated Recall_Prolific",1,151,2023-02-06T00:21:16+00:00,0.80562090873718,1,versionA_stim.csv,ReadVersion.csv,Read,Read1,GRILL,THIGH,Study2,M,72,65,Study,User,-,,Study/JOL,"Study Phase2",571,,,-1,-1,,,,1
602454a47d0d7d121a1e444b,1gywxzqn9r,"Mediated Recall_Prolific",1,152,2023-02-06T00:21:47+00:00,30.692495107651,1,versionA_stim.csv,ReadVersion.csv,Read,Read1,LEASE,TOIL,Study2,U,101,106,Study,User,-,,Study/JOL,"Study Phase2",30360,,,-1,-1,,,,0.047
602454a47d0d7d121a1e444b,1gywxzqn9r,"Mediated Recall_Prolific",1,153,2023-02-06T00:21:47+00:00,0.7892119884491,1,versionA_stim.csv,ReadVersion.csv,Read,Read1,PANTS,COLLAR,Study2,M,63,73,Study,User,-,,Study/JOL,"Study Phase2",518,,,-1,-1,,,,1
602454a47d0d7d121a1e444b,1gywxzqn9r,"Mediated Recall_Prolific",1,154,2023-02-06T00:21:48+00:00,0.777587890625,1,versionA_stim.csv,ReadVersion.csv,Read,Read1,SCHOOL,STOP,Study2,M,62,66,Study,User,-,,Study/JOL,"Study Phase2",549,,,-1,-1,,,,1
602454a47d0d7d121a1e444b,1gywxzqn9r,"Mediated Recall_Prolific",1,155,2023-02-06T00:21:49+00:00,0.79608511924744,1,versionA_stim.csv,ReadVersion.csv,Read,Read1,KING,VASE,Study2,U,91,63,Study,User,-,,Study/JOL,"Study Phase2",567,,,-1,-1,,,,1
602454a47d0d7d121a1e444b,1gywxzqn9r,"Mediated Recall_Prolific",1,156,2023-02-06T00:21:50+00:00,0.85687780380249,1,versionA_stim.csv,ReadVersion.csv,Read,Read1,HORNET,STING,Study2,F,85,85,Study,User,-,,Study/JOL,"Study Phase2",630,,,-1,-1,,,,1
602454a47d0d7d121a1e444b,1gywxzqn9r,"Mediated Recall_Prolific",1,157,2023-02-06T00:21:51+00:00,0.79388809204102,1,versionA_stim.csv,ReadVersion.csv,Read,Read1,RAKE,SEED,Study2,M,69,92,Study,User,-,,Study/JOL,"Study Phase2",544,,,-1,-1,,,,1
602454a47d0d7d121a1e444b,1gywxzqn9r,"Mediated Recall_Prolific",1,158,2023-02-06T00:21:51+00:00,0.67718505859375,1,versionA_stim.csv,ReadVersion.csv,Read,Read1,SPRING,MARCH,BUFFER3,Buffer,59,61,Study,User,-,,Study/JOL,BUFFER2,456,,,-1,-1,,,,1
602454a47d0d7d121a1e444b,1gywxzqn9r,"Mediated Recall_Prolific",1,159,2023-02-06T00:21:52+00:00,0.77151489257812,1,versionA_stim.csv,ReadVersion.csv,Read,Read1,MALT,CHOCOLATE,BUFFER2,Buffer,53,54,Study,User,-,,Study/JOL,BUFFER2,542,,,-1,-1,,,,1
602454a47d0d7d121a1e444b,1gywxzqn9r,"Mediated Recall_Prolific",1,160,2023-02-06T00:21:53+00:00,0.80718517303467,1,versionA_stim.csv,ReadVersion.csv,Read,Read1,CARROT,POTATO,BUFFER4,Buffer,106,108,Study,User,-,,Study/JOL,BUFFER2,571,,,-1,-1,,,,1
602454a47d0d7d121a1e444b,1gywxzqn9r,"Mediated Recall_Prolific",1,161,2023-02-06T00:21:54+00:00,0.73359179496765,1,versionA_stim.csv,ReadVersion.csv,Read,Read1,SHERRIF,POLICE,BUFFER2,Buffer,52,55,Study,User,-,,Study/JOL,BUFFER2,512,,,-1,-1,,,,1
602454a47d0d7d121a1e444b,1gywxzqn9r,"Mediated Recall_Prolific",1,162,2023-02-06T00:21:54+00:00,0.66519713401794,1,versionA_stim.csv,ReadVersion.csv,Read,Read1,DAYS,WEAKS,BUFFER3,Buffer,56,57,Study,User,-,,Study/JOL,BUFFER2,432,,,-1,-1,,,,1
602454a47d0d7d121a1e444b,1gywxzqn9r,"Mediated Recall_Prolific",1,163,2023-02-06T00:21:56+00:00,1.72216796875,1,versionA_stim.csv,ReadVersion.csv,Read,Read1,,,,,,0,Instruct,User,-,"You have completed this section. Please press Enter.",Filler_Instruction,Instruct2,1490,,,-1,-1,,,,1
602454a47d0d7d121a1e444b,1gywxzqn9r,"Mediated Recall_Prolific",1,164,2023-02-06T00:23:56+00:00,120.36940002441,1,versionA_stim.csv,ReadVersion.csv,Read,Read1,,,,,,0,FreeRecall,120,120,"Please list the 50 US states in alphabetical order. The task will automatically advance to the next screen after two minutes.",,Filler1,120001,"Alabama, Alaska, Arizona, Arkansas, California, Colorado, Connecticut, Delaware, Florida, Georgia, Hawaii, Idaho, Illinois, Indiana, Iowa, Kansas, Kentucky, Louisiana, Maine, Maryland, Massachusetts, Michigan, Minnesota, ",0,-1,-1,0,0,,0.102
602454a47d0d7d121a1e444b,1gywxzqn9r,"Mediated Recall_Prolific",1,165,2023-02-06T00:24:16+00:00,19.515542984009,1,versionA_stim.csv,ReadVersion.csv,Read,Read1,,,,,,0,Instruct,-,10,"You will now be presented with the first word from each of the previously studied item pairs. Please type the missing word. If you do not know the word, you may guess or press Enter to skip forward to the next pair.",,Instruct3,19107,,,-1,-1,,,,0.042
602454a47d0d7d121a1e444b,1gywxzqn9r,"Mediated Recall_Prolific",1,166,2023-02-06T00:24:19+00:00,3.5255410671234,1,versionA_stim.csv,ReadVersion.csv,Read,Read1,WASP,BUG,Study2,F,89,104,Test,User,-,,Recall,Recall2,3287,NEST,0,1757,3170,0,0,,1
602454a47d0d7d121a1e444b,1gywxzqn9r,"Mediated Recall_Prolific",1,167,2023-02-06T00:24:28+00:00,8.340075969696,1,versionA_stim.csv,ReadVersion.csv,Read,Read1,HERD,COW,Study2,F,88,76,Test,User,-,,Recall,Recall2,7992,COW,100,7605,7875,1,1,,0.15
602454a47d0d7d121a1e444b,1gywxzqn9r,"Mediated Recall_Prolific",1,168,2023-02-06T00:24:30+00:00,1.8122599124908,1,versionA_stim.csv,ReadVersion.csv,Read,Read1,DOCUMENT,PAPER,Study2,F,82,102,Test,User,-,,Recall,Recall2,1581,PAPER,100,1221,1499,1,1,,1
602454a47d0d7d121a1e444b,1gywxzqn9r,"Mediated Recall_Prolific",1,169,2023-02-06T00:24:31+00:00,1.9441111087799,1,versionA_stim.csv,ReadVersion.csv,Read,Read1,STRONG,ACCIDENT,Study2,U,94,93,Test,User,-,,Recall,Recall2,1720,WEAK,16.666666666667,1378,1593,0,0,,1
602454a47d0d7d121a1e444b,1gywxzqn9r,"Mediated Recall_Prolific",1,170,2023-02-06T00:24:33+00:00,2.0079188346863,1,versionA_stim.csv,ReadVersion.csv,Read,Read1,BOTH,OUNCE,Study2,U,102,64,Test,User,-,,Recall,Recall2,1769,ONE,75,1463,1617,0,1,,1
602454a47d0d7d121a1e444b,1gywxzqn9r,"Mediated Recall_Prolific",1,171,2023-02-06T00:24:36+00:00,2.0913751125336,1,versionA_stim.csv,ReadVersion.csv,Read,Read1,CHERRY,RED,Study2,F,80,89,Test,User,-,,Recall,Recall2,1852,PIE,33.333333333333,1185,1708,0,0,,1
602454a47d0d7d121a1e444b,1gywxzqn9r,"Mediated Recall_Prolific",1,172,2023-02-06T00:24:38+00:00,2.2796819210052,1,versionA_stim.csv,ReadVersion.csv,Read,Read1,DIETARY,SACK,Study2,U,97,100,Test,User,-,,Recall,Recall2,2019,SUPPLEMENT,14.285714285714,983,1929,0,0,,1
602454a47d0d7d121a1e444b,1gywxzqn9r,"Mediated Recall_Prolific",1,173,2023-02-06T00:24:40+00:00,1.7453670501709,1,versionA_stim.csv,ReadVersion.csv,Read,Read1,CHILL,COLD,Study2,F,87,80,Test,User,-,,Recall,Recall2,1506,COLD,100,1119,1372,1,1,,1
602454a47d0d7d121a1e444b,1gywxzqn9r,"Mediated Recall_Prolific",1,174,2023-02-06T00:24:42+00:00,1.9814820289612,1,versionA_stim.csv,ReadVersion.csv,Read,Read1,CACTUS,PLANT,Study2,F,76,68,Test,User,-,,Recall,Recall2,1736,FRUIT,20,1152,1619,0,0,,1
602454a47d0d7d121a1e444b,1gywxzqn9r,"Mediated Recall_Prolific",1,175,2023-02-06T00:24:44+00:00,2.1576309204102,1,versionA_stim.csv,ReadVersion.csv,Read,Read1,HEAVY,FEATHER,Study2,M,68,84,Test,User,-,,Recall,Recall2,1920,LIGHT,16.666666666667,1423,1783,0,0,,1
602454a47d0d7d121a1e444b,1gywxzqn9r,"Mediated Recall_Prolific",1,176,2023-02-06T00:24:47+00:00,2.8135170936584,1,versionA_stim.csv,ReadVersion.csv,Read,Read1,ARTERY,BRONZE,Study2,U,103,69,Test,User,-,,Recall,Recall2,2584,BLOOD,36.363636363636,2034,2513,0,0,,1
602454a47d0d7d121a1e444b,1gywxzqn9r,"Mediated Recall_Prolific",1,177,2023-02-06T00:24:55+00:00,8.2423300743103,1,versionA_stim.csv,ReadVersion.csv,Read,Read1,EYES,SMELL,Study2,M,65,83,Test,User,-,,Recall,Recall2,7866,BALLS,40,7390,7750,0,0,,0.231
602454a47d0d7d121a1e444b,1gywxzqn9r,"Mediated Recall_Prolific",1,178,2023-02-06T00:24:57+00:00,2.2051818370819,1,versionA_stim.csv,ReadVersion.csv,Read,Read1,SOAP,DRINK,Study2,M,67,96,Test,User,-,,Recall,Recall2,1958,CLEAN,20,1560,1840,0,0,,1
602454a47d0d7d121a1e444b,1gywxzqn9r,"Mediated Recall_Prolific",1,179,2023-02-06T00:25:07+00:00,10.066385984421,1,versionA_stim.csv,ReadVersion.csv,Read,Read1,INCENSE,SMELL,Study2,F,83,67,Test,User,-,,Recall,Recall2,9700,SMELL,100,9123,9572,1,1,,0.229
602454a47d0d7d121a1e444b,1gywxzqn9r,"Mediated Recall_Prolific",1,180,2023-02-06T00:25:09+00:00,1.8284041881561,1,versionA_stim.csv,ReadVersion.csv,Read,Read1,ART,WOLF,Study2,U,93,86,Test,User,-,,Recall,Recall2,1589,COOL,50,1182,1497,0,0,,1
602454a47d0d7d121a1e444b,1gywxzqn9r,"Mediated Recall_Prolific",1,181,2023-02-06T00:25:12+00:00,2.6725249290466,1,versionA_stim.csv,ReadVersion.csv,Read,Read1,SUGAR,RIDDLE,Study2,U,95,62,Test,User,-,,Recall,Recall2,2446,SWEET,18.181818181818,1149,1905,0,0,,1
602454a47d0d7d121a1e444b,1gywxzqn9r,"Mediated Recall_Prolific",1,182,2023-02-06T00:25:13+00:00,1.6269788742065,1,versionA_stim.csv,ReadVersion.csv,Read,Read1,BLAZE,FIRE,Study2,F,81,71,Test,User,-,,Recall,Recall2,1399,FIRE,100,1137,1316,1,1,,1
602454a47d0d7d121a1e444b,1gywxzqn9r,"Mediated Recall_Prolific",1,183,2023-02-06T00:25:15+00:00,1.6475071907043,1,versionA_stim.csv,ReadVersion.csv,Read,Read1,CASH,LEG,Study2,U,105,70,Test,User,-,,Recall,Recall2,1369,COW,0,1099,1272,0,0,,1
602454a47d0d7d121a1e444b,1gywxzqn9r,"Mediated Recall_Prolific",1,184,2023-02-06T00:25:18+00:00,2.7431728839874,1,versionA_stim.csv,ReadVersion.csv,Read,Read1,WINDOW,KNOB,Study2,M,74,105,Test,User,-,,Recall,Recall2,2493,SILL,0,1573,2364,0,0,,1
602454a47d0d7d121a1e444b,1gywxzqn9r,"Mediated Recall_Prolific",1,185,2023-02-06T00:25:19+00:00,1.6691961288452,1,versionA_stim.csv,ReadVersion.csv,Read,Read1,GRILL,THIGH,Study2,M,72,65,Test,User,-,,Recall,Recall2,1438,MEAT,22.222222222222,1077,1328,0,0,,1
602454a47d0d7d121a1e444b,1gywxzqn9r,"Mediated Recall_Prolific",1,186,2023-02-06T00:25:22+00:00,2.958477973938,1,versionA_stim.csv,ReadVersion.csv,Read,Read1,MIRROR,CHILDREN,Study2,U,104,74,Test,User,-,,Recall,Recall2,2726,REFLECTION,33.333333333333,1816,2609,0,0,,1
602454a47d0d7d121a1e444b,1gywxzqn9r,"Mediated Recall_Prolific",1,187,2023-02-06T00:25:25+00:00,2.7060828208923,1,versionA_stim.csv,ReadVersion.csv,Read,Read1,NURSE,LAWYER,Study2,M,66,97,Test,User,-,,Recall,Recall2,2472,PRACTICTIONER,31.578947368421,975,2363,0,0,,1
602454a47d0d7d121a1e444b,1gywxzqn9r,"Mediated Recall_Prolific",1,188,2023-02-06T00:25:27+00:00,1.8231279850006,1,versionA_stim.csv,ReadVersion.csv,Read,Read1,PUSH,CLUTTER,Study2,U,96,95,Test,User,-,,Recall,Recall2,1594,PULL,18.181818181818,1114,1512,0,0,,1
602454a47d0d7d121a1e444b,1gywxzqn9r,"Mediated Recall_Prolific",1,189,2023-02-06T00:25:28+00:00,1.5238289833069,1,versionA_stim.csv,ReadVersion.csv,Read,Read1,KING,VASE,Study2,U,91,63,Test,User,-,,Recall,Recall2,1295,SIZE,50,888,1166,0,0,,1
602454a47d0d7d121a1e444b,1gywxzqn9r,"Mediated Recall_Prolific",1,190,2023-02-06T00:25:31+00:00,2.3182141780853,1,versionA_stim.csv,ReadVersion.csv,Read,Read1,SCHOOL,STOP,Study2,M,62,66,Test,User,-,,Recall,Recall2,2084,STOP,100,1741,1931,1,1,,1
602454a47d0d7d121a1e444b,1gywxzqn9r,"Mediated Recall_Prolific",1,191,2023-02-06T00:25:59+00:00,28.624908924103,1,versionA_stim.csv,ReadVersion.csv,Read,Read1,RAKE,SEED,Study2,M,69,92,Test,User,-,,Recall,Recall2,28280,CLEAN,22.222222222222,27772,28071,0,0,,0.114
602454a47d0d7d121a1e444b,1gywxzqn9r,"Mediated Recall_Prolific",1,192,2023-02-06T00:26:01+00:00,1.9350309371948,1,versionA_stim.csv,ReadVersion.csv,Read,Read1,BRIDGE,WATER,Study2,F,90,94,Test,User,-,,Recall,Recall2,1685,FALL,22.222222222222,1324,1540,0,0,,1
602454a47d0d7d121a1e444b,1gywxzqn9r,"Mediated Recall_Prolific",1,193,2023-02-06T00:26:03+00:00,2.1064901351929,1,versionA_stim.csv,ReadVersion.csv,Read,Read1,LEASE,TOIL,Study2,U,101,106,Test,User,-,,Recall,Recall2,1877,LEND,25,1497,1786,0,0,,1
602454a47d0d7d121a1e444b,1gywxzqn9r,"Mediated Recall_Prolific",1,194,2023-02-06T00:26:05+00:00,2.1185200214386,1,versionA_stim.csv,ReadVersion.csv,Read,Read1,HAPPY,CAR,Study2,U,92,99,Test,User,-,,Recall,Recall2,1880,SAD,33.333333333333,1502,1754,0,0,,1
602454a47d0d7d121a1e444b,1gywxzqn9r,"Mediated Recall_Prolific",1,195,2023-02-06T00:26:09+00:00,3.1659069061279,1,versionA_stim.csv,ReadVersion.csv,Read,Read1,SUMMER,SNOW,Study2,M,61,72,Test,User,-,,Recall,Recall2,2932,WARM,25,1491,2795,0,0,,1
602454a47d0d7d121a1e444b,1gywxzqn9r,"Mediated Recall_Prolific",1,196,2023-02-06T00:26:12+00:00,3.7955310344696,1,versionA_stim.csv,ReadVersion.csv,Read,Read1,CHISEL,HAMMER,Study2,F,78,101,Test,User,-,,Recall,Recall2,3559,BREAK,18.181818181818,3164,3406,0,0,,1
602454a47d0d7d121a1e444b,1gywxzqn9r,"Mediated Recall_Prolific",1,197,2023-02-06T00:26:15+00:00,2.3109860420227,1,versionA_stim.csv,ReadVersion.csv,Read,Read1,CHOP,CUT,Study2,F,77,90,Test,User,-,,Recall,Recall2,2068,CUT,100,1662,1825,1,1,,1
602454a47d0d7d121a1e444b,1gywxzqn9r,"Mediated Recall_Prolific",1,198,2023-02-06T00:26:29+00:00,14.114958047867,1,versionA_stim.csv,ReadVersion.csv,Read,Read1,BENCH,HORN,Study2,U,98,98,Test,User,-,,Recall,Recall2,13703,PRESS,22.222222222222,13232,13611,0,0,,0.221
602454a47d0d7d121a1e444b,1gywxzqn9r,"Mediated Recall_Prolific",1,199,2023-02-06T00:26:31+00:00,1.7560868263245,1,versionA_stim.csv,ReadVersion.csv,Read,Read1,RAZOR,MUSCLE,Study2,M,75,77,Test,User,-,,Recall,Recall2,1518,SHARP,18.181818181818,885,1345,0,0,,1
602454a47d0d7d121a1e444b,1gywxzqn9r,"Mediated Recall_Prolific",1,200,2023-02-06T00:26:33+00:00,2.0194780826569,1,versionA_stim.csv,ReadVersion.csv,Read,Read1,FEUD,FIGHT,Study2,F,86,81,Test,User,-,,Recall,Recall2,1781,FAMILY,36.363636363636,1086,1600,0,0,,1
602454a47d0d7d121a1e444b,1gywxzqn9r,"Mediated Recall_Prolific",1,201,2023-02-06T00:26:43+00:00,10.330543041229,1,versionA_stim.csv,ReadVersion.csv,Read,Read1,VALLEY,PEAK,Study2,M,73,88,Test,User,-,,Recall,Recall2,9974,PEAK,100,9107,9819,1,1,,0.2
602454a47d0d7d121a1e444b,1gywxzqn9r,"Mediated Recall_Prolific",1,202,2023-02-06T00:26:45+00:00,2.0563139915466,1,versionA_stim.csv,ReadVersion.csv,Read,Read1,REALITY,ISLAND,Study2,M,64,79,Test,User,-,,Recall,Recall2,1820,CHECK,0,1065,1730,0,0,,1
602454a47d0d7d121a1e444b,1gywxzqn9r,"Mediated Recall_Prolific",1,203,2023-02-06T00:26:47+00:00,2.0213429927826,1,versionA_stim.csv,ReadVersion.csv,Read,Read1,ATTIRE,CLOTHES,Study2,F,79,91,Test,User,-,,Recall,Recall2,1773,WEAR,18.181818181818,1430,1655,0,0,,1
602454a47d0d7d121a1e444b,1gywxzqn9r,"Mediated Recall_Prolific",1,204,2023-02-06T00:27:03+00:00,15.80156993866,1,versionA_stim.csv,ReadVersion.csv,Read,Read1,LEAGUE,BASEBALL,Study2,F,84,82,Test,User,-,,Recall,Recall2,15436,BASEBALL,100,14697,15300,1,1,,0.169
602454a47d0d7d121a1e444b,1gywxzqn9r,"Mediated Recall_Prolific",1,205,2023-02-06T00:27:06+00:00,3.6480031013489,1,versionA_stim.csv,ReadVersion.csv,Read,Read1,TRAP,CAVE,Study2,M,70,75,Test,User,-,,Recall,Recall2,3397,CLAP,50,1481,3260,0,0,,1
602454a47d0d7d121a1e444b,1gywxzqn9r,"Mediated Recall_Prolific",1,206,2023-02-06T00:27:08+00:00,1.6874618530273,1,versionA_stim.csv,ReadVersion.csv,Read,Read1,DEATH,BUSINESS,Study2,U,99,78,Test,User,-,,Recall,Recall2,1455,SNARE,46.153846153846,1022,1354,0,0,,1
602454a47d0d7d121a1e444b,1gywxzqn9r,"Mediated Recall_Prolific",1,207,2023-02-06T00:27:10+00:00,2.1042971611023,1,versionA_stim.csv,ReadVersion.csv,Read,Read1,PANTS,COLLAR,Study2,M,63,73,Test,User,-,,Recall,Recall2,1872,SHIRT,18.181818181818,1456,1764,0,0,,1
602454a47d0d7d121a1e444b,1gywxzqn9r,"Mediated Recall_Prolific",1,208,2023-02-06T00:27:12+00:00,1.3543789386749,1,versionA_stim.csv,ReadVersion.csv,Read,Read1,OVEN,BASKET,Study2,M,71,103,Test,User,-,,Recall,Recall2,1127,ON,0,901,1019,0,0,,1
602454a47d0d7d121a1e444b,1gywxzqn9r,"Mediated Recall_Prolific",1,209,2023-02-06T00:27:14+00:00,2.2882928848267,1,versionA_stim.csv,ReadVersion.csv,Read,Read1,HORNET,STING,Study2,F,85,85,Test,User,-,,Recall,Recall2,2063,NEST,44.444444444444,991,1928,0,0,,1
602454a47d0d7d121a1e444b,1gywxzqn9r,"Mediated Recall_Prolific",1,210,2023-02-06T00:27:26+00:00,12.301573991776,1,versionA_stim.csv,ReadVersion.csv,Read,Read1,SICK,HIDE,Study2,U,100,87,Test,User,-,,Recall,Recall2,11950,WELL,25,11472,11822,0,0,,0.133
602454a47d0d7d121a1e444b,1gywxzqn9r,"Mediated Recall_Prolific",1,211,2023-02-06T00:27:28+00:00,1.691967010498,1,versionA_stim.csv,ReadVersion.csv,Read,Read1,,,,,,0,Instruct,User,-,"You have completed this section. Please press Enter.",,Instruct7,1457,,,-1,-1,,,,1
602454a47d0d7d121a1e444b,1gywxzqn9r,"Mediated Recall_Prolific",1,212,2023-02-06T00:27:30+00:00,2.1788339614868,1,versionA_stim.csv,ReadVersion.csv,Read,Read1,,,,,,0,Instruct,User,-,"The following screen will ask you a few questions abour your experience today. You must complete these questions to receive credit.",,Instruct8,1941,,,-1,-1,,,,1
