Username,ID,ExperimentName,Session,Trial,Date,TimeDif,"Condition Number","Stimuli File","Order File","Condition Description","Condition Notes",Stimuli*Cue,Stimuli*Answer,Stimuli*Shuffle,"Stimuli*Stimuli Notes",Stimuli*Value,Procedure*Item,"Procedure*Trial Type","Procedure*Max Time","Procedure*Min Time",Procedure*Text,"Procedure*Procedure Notes",Procedure*Shuffle,Response*RT,Response*Response,Response*Accuracy,Response*RTfirst,Response*RTlast,Response*strictAcc,Response*lenientAcc,Response*focus,Response*Focus
6107d8ee8bd9a035d04f6d98,se3e4f8n1t,"Mediated Recall_Prolific",1,1,2023-02-05T18:26:39+00:00,5.653993844986,1,versionA_stim.csv,ReadVersion.csv,Read,Read1,,,,,,0,Instruct,-,5,"In this section, you will be presented with a series of word pairs. Please study each word pair! Your memory will be tested!",Initial_Instruct,Instruct1,5531,,,-1,-1,,,,1
6107d8ee8bd9a035d04f6d98,se3e4f8n1t,"Mediated Recall_Prolific",1,2,2023-02-05T18:26:44+00:00,4.6947870254517,1,versionA_stim.csv,ReadVersion.csv,Read,Read1,,,,,,0,Instruct,User,-,"You will now begin. Press Enter when you are ready to begin.",,Instruct16,4510,,,-1,-1,,,,1
6107d8ee8bd9a035d04f6d98,se3e4f8n1t,"Mediated Recall_Prolific",1,3,2023-02-05T18:26:47+00:00,3.1628241539001,1,versionA_stim.csv,ReadVersion.csv,Read,Read1,TREES,GREEN,BUFFER1,Buffer,1,4,Study,User,-,,Study/JOL,BUFFER,2969,,,-1,-1,,,,1
6107d8ee8bd9a035d04f6d98,se3e4f8n1t,"Mediated Recall_Prolific",1,4,2023-02-05T18:26:51+00:00,3.8168678283691,1,versionA_stim.csv,ReadVersion.csv,Read,Read1,PITCHER,CATCHER,BUFFER1,Buffer,2,5,Study,User,-,,Study/JOL,BUFFER,3633,,,-1,-1,,,,1
6107d8ee8bd9a035d04f6d98,se3e4f8n1t,"Mediated Recall_Prolific",1,5,2023-02-05T18:26:54+00:00,3.5556299686432,1,versionA_stim.csv,ReadVersion.csv,Read,Read1,SCARE,FRIGHT,BUFFER1,Buffer,4,6,Study,User,-,,Study/JOL,BUFFER,3356,,,-1,-1,,,,1
6107d8ee8bd9a035d04f6d98,se3e4f8n1t,"Mediated Recall_Prolific",1,6,2023-02-05T18:26:56+00:00,2.2246279716492,1,versionA_stim.csv,ReadVersion.csv,Read,Read1,SPACE,JAM,BUFFER1,Buffer,5,3,Study,User,-,,Study/JOL,BUFFER,2039,,,-1,-1,,,,1
6107d8ee8bd9a035d04f6d98,se3e4f8n1t,"Mediated Recall_Prolific",1,7,2023-02-05T18:26:59+00:00,2.3968651294708,1,versionA_stim.csv,ReadVersion.csv,Read,Read1,PEANUT,BUTTER,BUFFER1,Buffer,3,2,Study,User,-,,Study/JOL,BUFFER,2199,,,-1,-1,,,,1
6107d8ee8bd9a035d04f6d98,se3e4f8n1t,"Mediated Recall_Prolific",1,8,2023-02-05T18:27:01+00:00,2.2697699069977,1,versionA_stim.csv,ReadVersion.csv,Read,Read1,LITTER,TRASH,Study1,F,21,24,Study,User,-,,Study/JOL,"Study Phase",2084,,,-1,-1,,,,1
6107d8ee8bd9a035d04f6d98,se3e4f8n1t,"Mediated Recall_Prolific",1,9,2023-02-05T18:27:03+00:00,2.3420741558075,1,versionA_stim.csv,ReadVersion.csv,Read,Read1,HORSE,WHEEL,Study1,M,14,29,Study,User,-,,Study/JOL,"Study Phase",2140,,,-1,-1,,,,1
6107d8ee8bd9a035d04f6d98,se3e4f8n1t,"Mediated Recall_Prolific",1,10,2023-02-05T18:27:06+00:00,2.2817740440369,1,versionA_stim.csv,ReadVersion.csv,Read,Read1,LION,STRIPES,Study1,M,6,9,Study,User,-,,Study/JOL,"Study Phase",2092,,,-1,-1,,,,1
6107d8ee8bd9a035d04f6d98,se3e4f8n1t,"Mediated Recall_Prolific",1,11,2023-02-05T18:27:11+00:00,5.140124797821,1,versionA_stim.csv,ReadVersion.csv,Read,Read1,SIGN,TICK,Study1,U,47,26,Study,User,-,,Study/JOL,"Study Phase",4902,,,-1,-1,,,,1
6107d8ee8bd9a035d04f6d98,se3e4f8n1t,"Mediated Recall_Prolific",1,12,2023-02-05T18:27:13+00:00,2.6190280914307,1,versionA_stim.csv,ReadVersion.csv,Read,Read1,ROUGH,SILK,Study1,M,10,10,Study,User,-,,Study/JOL,"Study Phase",2436,,,-1,-1,,,,1
6107d8ee8bd9a035d04f6d98,se3e4f8n1t,"Mediated Recall_Prolific",1,13,2023-02-05T18:27:16+00:00,2.8934979438782,1,versionA_stim.csv,ReadVersion.csv,Read,Read1,CRY,BOTTLE,Study1,M,16,19,Study,User,-,,Study/JOL,"Study Phase",2683,,,-1,-1,,,,1
6107d8ee8bd9a035d04f6d98,se3e4f8n1t,"Mediated Recall_Prolific",1,14,2023-02-05T18:27:19+00:00,2.2132749557495,1,versionA_stim.csv,ReadVersion.csv,Read,Read1,AFFECTION,LOVE,Study1,F,31,27,Study,User,-,,Study/JOL,"Study Phase",2024,,,-1,-1,,,,1
6107d8ee8bd9a035d04f6d98,se3e4f8n1t,"Mediated Recall_Prolific",1,15,2023-02-05T18:27:21+00:00,2.5018301010132,1,versionA_stim.csv,ReadVersion.csv,Read,Read1,SHELL,SHAKE,Study1,U,43,39,Study,User,-,,Study/JOL,"Study Phase",2312,,,-1,-1,,,,1
6107d8ee8bd9a035d04f6d98,se3e4f8n1t,"Mediated Recall_Prolific",1,16,2023-02-05T18:27:23+00:00,2.1947660446167,1,versionA_stim.csv,ReadVersion.csv,Read,Read1,TREE,SYRUP,Study1,M,11,48,Study,User,-,,Study/JOL,"Study Phase",1988,,,-1,-1,,,,1
6107d8ee8bd9a035d04f6d98,se3e4f8n1t,"Mediated Recall_Prolific",1,17,2023-02-05T18:27:25+00:00,2.2292799949646,1,versionA_stim.csv,ReadVersion.csv,Read,Read1,VEHICLE,CHARM,Study1,U,40,18,Study,User,-,,Study/JOL,"Study Phase",2031,,,-1,-1,,,,1
6107d8ee8bd9a035d04f6d98,se3e4f8n1t,"Mediated Recall_Prolific",1,18,2023-02-05T18:27:27+00:00,2.0120639801025,1,versionA_stim.csv,ReadVersion.csv,Read,Read1,WEDDING,FINGER,Study1,M,17,40,Study,User,-,,Study/JOL,"Study Phase",1818,,,-1,-1,,,,1
6107d8ee8bd9a035d04f6d98,se3e4f8n1t,"Mediated Recall_Prolific",1,19,2023-02-05T18:27:29+00:00,1.7866868972778,1,versionA_stim.csv,ReadVersion.csv,Read,Read1,SIP,DRINK,Study1,F,32,23,Study,User,-,,Study/JOL,"Study Phase",1605,,,-1,-1,,,,1
6107d8ee8bd9a035d04f6d98,se3e4f8n1t,"Mediated Recall_Prolific",1,20,2023-02-05T18:27:31+00:00,1.9052250385284,1,versionA_stim.csv,ReadVersion.csv,Read,Read1,WAR,QUIET,Study1,M,8,31,Study,User,-,,Study/JOL,"Study Phase",1701,,,-1,-1,,,,1
6107d8ee8bd9a035d04f6d98,se3e4f8n1t,"Mediated Recall_Prolific",1,21,2023-02-05T18:27:33+00:00,2.3286850452423,1,versionA_stim.csv,ReadVersion.csv,Read,Read1,CRACKLE,ELECTION,Study1,U,39,8,Study,User,-,,Study/JOL,"Study Phase",2134,,,-1,-1,,,,1
6107d8ee8bd9a035d04f6d98,se3e4f8n1t,"Mediated Recall_Prolific",1,22,2023-02-05T18:27:36+00:00,2.4334969520569,1,versionA_stim.csv,ReadVersion.csv,Read,Read1,TEMPERATURE,MORNING,Study1,U,48,28,Study,User,-,,Study/JOL,"Study Phase",2235,,,-1,-1,,,,1
6107d8ee8bd9a035d04f6d98,se3e4f8n1t,"Mediated Recall_Prolific",1,23,2023-02-05T18:27:38+00:00,2.0152990818024,1,versionA_stim.csv,ReadVersion.csv,Read,Read1,CAKE,HAND,Study1,U,49,7,Study,User,-,,Study/JOL,"Study Phase",1830,,,-1,-1,,,,1
6107d8ee8bd9a035d04f6d98,se3e4f8n1t,"Mediated Recall_Prolific",1,24,2023-02-05T18:27:40+00:00,1.9359259605408,1,versionA_stim.csv,ReadVersion.csv,Read,Read1,SOON,BELT,Study1,U,46,47,Study,User,-,,Study/JOL,"Study Phase",1744,,,-1,-1,,,,1
6107d8ee8bd9a035d04f6d98,se3e4f8n1t,"Mediated Recall_Prolific",1,25,2023-02-05T18:27:42+00:00,1.9136569499969,1,versionA_stim.csv,ReadVersion.csv,Read,Read1,SWAN,BIRD,Study1,F,26,42,Study,User,-,,Study/JOL,"Study Phase",1724,,,-1,-1,,,,1
6107d8ee8bd9a035d04f6d98,se3e4f8n1t,"Mediated Recall_Prolific",1,26,2023-02-05T18:27:44+00:00,2.1722061634064,1,versionA_stim.csv,ReadVersion.csv,Read,Read1,CREDIT,CARD,Study1,F,33,34,Study,User,-,,Study/JOL,"Study Phase",1973,,,-1,-1,,,,1
6107d8ee8bd9a035d04f6d98,se3e4f8n1t,"Mediated Recall_Prolific",1,27,2023-02-05T18:27:46+00:00,1.8657968044281,1,versionA_stim.csv,ReadVersion.csv,Read,Read1,FUZZY,BANG,Study1,U,50,14,Study,User,-,,Study/JOL,"Study Phase",1679,,,-1,-1,,,,1
6107d8ee8bd9a035d04f6d98,se3e4f8n1t,"Mediated Recall_Prolific",1,28,2023-02-05T18:27:48+00:00,2.0440330505371,1,versionA_stim.csv,ReadVersion.csv,Read,Read1,BIRTHDAY,PIE,Study1,M,9,25,Study,User,-,,Study/JOL,"Study Phase",1847,,,-1,-1,,,,1
6107d8ee8bd9a035d04f6d98,se3e4f8n1t,"Mediated Recall_Prolific",1,29,2023-02-05T18:27:51+00:00,3.2152400016785,1,versionA_stim.csv,ReadVersion.csv,Read,Read1,MULE,DONKEY,Study1,F,30,16,Study,User,-,,Study/JOL,"Study Phase",3011,,,-1,-1,,,,1
6107d8ee8bd9a035d04f6d98,se3e4f8n1t,"Mediated Recall_Prolific",1,30,2023-02-05T18:27:56+00:00,4.6506190299988,1,versionA_stim.csv,ReadVersion.csv,Read,Read1,MEAT,KEYS,Study1,U,41,44,Study,User,-,,Study/JOL,"Study Phase",4460,,,-1,-1,,,,1
6107d8ee8bd9a035d04f6d98,se3e4f8n1t,"Mediated Recall_Prolific",1,31,2023-02-05T18:27:58+00:00,2.0729689598083,1,versionA_stim.csv,ReadVersion.csv,Read,Read1,MULE,DONKEY,Study1,F,24,21,Study,User,-,,Study/JOL,"Study Phase",1884,,,-1,-1,,,,1
6107d8ee8bd9a035d04f6d98,se3e4f8n1t,"Mediated Recall_Prolific",1,32,2023-02-05T18:28:00+00:00,2.0212450027466,1,versionA_stim.csv,ReadVersion.csv,Read,Read1,CEILING,CARPET,Study1,M,15,41,Study,User,-,,Study/JOL,"Study Phase",1828,,,-1,-1,,,,1
6107d8ee8bd9a035d04f6d98,se3e4f8n1t,"Mediated Recall_Prolific",1,33,2023-02-05T18:28:08+00:00,8.2253220081329,1,versionA_stim.csv,ReadVersion.csv,Read,Read1,TOOTH,HAIR,Study1,M,19,45,Study,User,-,,Study/JOL,"Study Phase",8027,,,-1,-1,,,,1
6107d8ee8bd9a035d04f6d98,se3e4f8n1t,"Mediated Recall_Prolific",1,34,2023-02-05T18:28:10+00:00,1.6998491287231,1,versionA_stim.csv,ReadVersion.csv,Read,Read1,MAZE,PHONE,Study1,U,42,30,Study,User,-,,Study/JOL,"Study Phase",1505,,,-1,-1,,,,1
6107d8ee8bd9a035d04f6d98,se3e4f8n1t,"Mediated Recall_Prolific",1,35,2023-02-05T18:28:12+00:00,1.8603868484497,1,versionA_stim.csv,ReadVersion.csv,Read,Read1,GIVE,STEAK,Study1,U,38,20,Study,User,-,,Study/JOL,"Study Phase",1652,,,-1,-1,,,,1
6107d8ee8bd9a035d04f6d98,se3e4f8n1t,"Mediated Recall_Prolific",1,36,2023-02-05T18:28:14+00:00,2.2842359542847,1,versionA_stim.csv,ReadVersion.csv,Read,Read1,ROOT,PLANT,Study1,F,25,43,Study,User,-,,Study/JOL,"Study Phase",2097,,,-1,-1,,,,1
6107d8ee8bd9a035d04f6d98,se3e4f8n1t,"Mediated Recall_Prolific",1,37,2023-02-05T18:28:16+00:00,1.6462512016296,1,versionA_stim.csv,ReadVersion.csv,Read,Read1,WORD,SENTENCE,Study1,F,27,11,Study,User,-,,Study/JOL,"Study Phase",1453,,,-1,-1,,,,1
6107d8ee8bd9a035d04f6d98,se3e4f8n1t,"Mediated Recall_Prolific",1,38,2023-02-05T18:28:17+00:00,1.8268179893494,1,versionA_stim.csv,ReadVersion.csv,Read,Read1,LISTEN,FICTION,Study1,U,44,33,Study,User,-,,Study/JOL,"Study Phase",1649,,,-1,-1,,,,1
6107d8ee8bd9a035d04f6d98,se3e4f8n1t,"Mediated Recall_Prolific",1,39,2023-02-05T18:28:19+00:00,1.5756139755249,1,versionA_stim.csv,ReadVersion.csv,Read,Read1,HYGIENE,CLEAN,Study1,F,28,46,Study,User,-,,Study/JOL,"Study Phase",1375,,,-1,-1,,,,1
6107d8ee8bd9a035d04f6d98,se3e4f8n1t,"Mediated Recall_Prolific",1,40,2023-02-05T18:28:20+00:00,1.492712020874,1,versionA_stim.csv,ReadVersion.csv,Read,Read1,WAGE,MONEY,Study1,F,22,38,Study,User,-,,Study/JOL,"Study Phase",1307,,,-1,-1,,,,1
6107d8ee8bd9a035d04f6d98,se3e4f8n1t,"Mediated Recall_Prolific",1,41,2023-02-05T18:28:22+00:00,1.8041968345642,1,versionA_stim.csv,ReadVersion.csv,Read,Read1,BEACH,BOX,Study1,M,7,32,Study,User,-,,Study/JOL,"Study Phase",1601,,,-1,-1,,,,1
6107d8ee8bd9a035d04f6d98,se3e4f8n1t,"Mediated Recall_Prolific",1,42,2023-02-05T18:28:24+00:00,1.6654419898987,1,versionA_stim.csv,ReadVersion.csv,Read,Read1,CIRCLE,DANCE,Study1,M,13,36,Study,User,-,,Study/JOL,"Study Phase",1461,,,-1,-1,,,,1
6107d8ee8bd9a035d04f6d98,se3e4f8n1t,"Mediated Recall_Prolific",1,43,2023-02-05T18:28:25+00:00,1.5295450687408,1,versionA_stim.csv,ReadVersion.csv,Read,Read1,TUNA,FISH,Study1,F,35,49,Study,User,-,,Study/JOL,"Study Phase",1339,,,-1,-1,,,,1
6107d8ee8bd9a035d04f6d98,se3e4f8n1t,"Mediated Recall_Prolific",1,44,2023-02-05T18:28:27+00:00,1.4953570365906,1,versionA_stim.csv,ReadVersion.csv,Read,Read1,HARD,COTTON,Study1,M,20,12,Study,User,-,,Study/JOL,"Study Phase",1300,,,-1,-1,,,,1
6107d8ee8bd9a035d04f6d98,se3e4f8n1t,"Mediated Recall_Prolific",1,45,2023-02-05T18:28:29+00:00,2.021301984787,1,versionA_stim.csv,ReadVersion.csv,Read,Read1,MIRROR,MAROON,Study1,U,36,50,Study,User,-,,Study/JOL,"Study Phase",1833,,,-1,-1,,,,1
6107d8ee8bd9a035d04f6d98,se3e4f8n1t,"Mediated Recall_Prolific",1,46,2023-02-05T18:28:30+00:00,1.505707025528,1,versionA_stim.csv,ReadVersion.csv,Read,Read1,ORCHID,FLOWER,Study1,F,34,15,Study,User,-,,Study/JOL,"Study Phase",1305,,,-1,-1,,,,1
6107d8ee8bd9a035d04f6d98,se3e4f8n1t,"Mediated Recall_Prolific",1,47,2023-02-05T18:28:32+00:00,1.4347569942474,1,versionA_stim.csv,ReadVersion.csv,Read,Read1,STRETCH,CLOTH,Study1,U,37,35,Study,User,-,,Study/JOL,"Study Phase",1241,,,-1,-1,,,,1
6107d8ee8bd9a035d04f6d98,se3e4f8n1t,"Mediated Recall_Prolific",1,48,2023-02-05T18:28:34+00:00,1.6771659851074,1,versionA_stim.csv,ReadVersion.csv,Read,Read1,KEYS,ROD,Study1,U,45,37,Study,User,-,,Study/JOL,"Study Phase",1493,,,-1,-1,,,,1
6107d8ee8bd9a035d04f6d98,se3e4f8n1t,"Mediated Recall_Prolific",1,49,2023-02-05T18:28:35+00:00,1.8877780437469,1,versionA_stim.csv,ReadVersion.csv,Read,Read1,NAP,SLEEP,Study1,F,29,22,Study,User,-,,Study/JOL,"Study Phase",1693,,,-1,-1,,,,1
6107d8ee8bd9a035d04f6d98,se3e4f8n1t,"Mediated Recall_Prolific",1,50,2023-02-05T18:28:38+00:00,2.1225030422211,1,versionA_stim.csv,ReadVersion.csv,Read,Read1,SCALP,HEAD,Study1,F,23,51,Study,User,-,,Study/JOL,"Study Phase",1932,,,-1,-1,,,,1
6107d8ee8bd9a035d04f6d98,se3e4f8n1t,"Mediated Recall_Prolific",1,51,2023-02-05T18:28:40+00:00,2.6304228305817,1,versionA_stim.csv,ReadVersion.csv,Read,Read1,BAT,BOUNCE,Study1,M,12,13,Study,User,-,,Study/JOL,"Study Phase",2445,,,-1,-1,,,,1
6107d8ee8bd9a035d04f6d98,se3e4f8n1t,"Mediated Recall_Prolific",1,52,2023-02-05T18:28:43+00:00,2.8072471618652,1,versionA_stim.csv,ReadVersion.csv,Read,Read1,DAY,DARK,Study1,M,18,17,Study,User,-,,Study/JOL,"Study Phase",2614,,,-1,-1,,,,1
6107d8ee8bd9a035d04f6d98,se3e4f8n1t,"Mediated Recall_Prolific",1,53,2023-02-05T18:28:46+00:00,2.9743728637695,1,versionA_stim.csv,ReadVersion.csv,Read,Read1,THING,STUFF,BUFFER2,Buffer,55,52,Study,User,-,,Study/JOL,BUFFER2,2787,,,-1,-1,,,,1
6107d8ee8bd9a035d04f6d98,se3e4f8n1t,"Mediated Recall_Prolific",1,54,2023-02-05T18:28:48+00:00,1.9600911140442,1,versionA_stim.csv,ReadVersion.csv,Read,Read1,SPRING,MARCH,BUFFER3,Buffer,59,61,Study,User,-,,Study/JOL,BUFFER2,1762,,,-1,-1,,,,1
6107d8ee8bd9a035d04f6d98,se3e4f8n1t,"Mediated Recall_Prolific",1,55,2023-02-05T18:28:51+00:00,3.1964159011841,1,versionA_stim.csv,ReadVersion.csv,Read,Read1,TOOL,SHED,BUFFER3,Buffer,58,57,Study,User,-,,Study/JOL,BUFFER2,3002,,,-1,-1,,,,1
6107d8ee8bd9a035d04f6d98,se3e4f8n1t,"Mediated Recall_Prolific",1,56,2023-02-05T18:28:54+00:00,3.3070819377899,1,versionA_stim.csv,ReadVersion.csv,Read,Read1,DAYS,WEAKS,BUFFER3,Buffer,56,59,Study,User,-,,Study/JOL,BUFFER2,3122,,,-1,-1,,,,1
6107d8ee8bd9a035d04f6d98,se3e4f8n1t,"Mediated Recall_Prolific",1,57,2023-02-05T18:28:56+00:00,1.824755191803,1,versionA_stim.csv,ReadVersion.csv,Read,Read1,NOODLE,STRING,BUFFER4,Buffer,107,110,Study,User,-,,Study/JOL,BUFFER2,1629,,,-1,-1,,,,1
6107d8ee8bd9a035d04f6d98,se3e4f8n1t,"Mediated Recall_Prolific",1,58,2023-02-05T18:29:00+00:00,3.3126268386841,1,versionA_stim.csv,ReadVersion.csv,Read,Read1,,,,,,0,Instruct,User,-,"You have completed this section. Please press Enter.",Filler_Instruction,Instruct2,3127,,,-1,-1,,,,1
6107d8ee8bd9a035d04f6d98,se3e4f8n1t,"Mediated Recall_Prolific",1,59,2023-02-05T18:31:00+00:00,120.67243003845,1,versionA_stim.csv,ReadVersion.csv,Read,Read1,,,,,,0,FreeRecall,120,120,"Please list the 50 US states in alphabetical order. The task will automatically advance to the next screen after two minutes.",,Filler1,120319,"Alabama Alaska Arkansas Delaware Florida ",0,13180,85838,0,0,,0.943
6107d8ee8bd9a035d04f6d98,se3e4f8n1t,"Mediated Recall_Prolific",1,60,2023-02-05T18:31:14+00:00,14.12913107872,1,versionA_stim.csv,ReadVersion.csv,Read,Read1,,,,,,0,Instruct,-,10,"You will now be presented with the first word from each of the previously studied item pairs. Please type the missing word. If you do not know the word, you may guess or press Enter to skip forward to the next pair.",,Instruct3,13806,,,-1,-1,,,,1
6107d8ee8bd9a035d04f6d98,se3e4f8n1t,"Mediated Recall_Prolific",1,61,2023-02-05T18:31:26+00:00,11.767143011093,1,versionA_stim.csv,ReadVersion.csv,Read,Read1,WAR,QUIET,Study1,M,8,31,Test,User,-,,Recall,Recall1,11429,,0,-1,-1,0,0,,1
6107d8ee8bd9a035d04f6d98,se3e4f8n1t,"Mediated Recall_Prolific",1,62,2023-02-05T18:31:29+00:00,2.4648170471191,1,versionA_stim.csv,ReadVersion.csv,Read,Read1,MIRROR,MAROON,Study1,U,36,50,Test,User,-,,Recall,Recall1,2264,,0,-1,-1,0,0,,1
6107d8ee8bd9a035d04f6d98,se3e4f8n1t,"Mediated Recall_Prolific",1,63,2023-02-05T18:31:31+00:00,2.4742968082428,1,versionA_stim.csv,ReadVersion.csv,Read,Read1,BAT,BOUNCE,Study1,M,12,13,Test,User,-,,Recall,Recall1,2278,,0,-1,-1,0,0,,1
6107d8ee8bd9a035d04f6d98,se3e4f8n1t,"Mediated Recall_Prolific",1,64,2023-02-05T18:31:32+00:00,1.3259470462799,1,versionA_stim.csv,ReadVersion.csv,Read,Read1,VEHICLE,CHARM,Study1,U,40,18,Test,User,-,,Recall,Recall1,1133,,0,-1,-1,0,0,,1
6107d8ee8bd9a035d04f6d98,se3e4f8n1t,"Mediated Recall_Prolific",1,65,2023-02-05T18:31:36+00:00,3.0848801136017,1,versionA_stim.csv,ReadVersion.csv,Read,Read1,LITTER,TRASH,Study1,F,21,24,Test,User,-,,Recall,Recall1,2892,,0,-1,-1,0,0,,1
6107d8ee8bd9a035d04f6d98,se3e4f8n1t,"Mediated Recall_Prolific",1,66,2023-02-05T18:32:03+00:00,27.497558832169,1,versionA_stim.csv,ReadVersion.csv,Read,Read1,CRY,BOTTLE,Study1,M,16,19,Test,User,-,,Recall,Recall1,27178,Tears,36.363636363636,5309,24255,0,0,,0.78
6107d8ee8bd9a035d04f6d98,se3e4f8n1t,"Mediated Recall_Prolific",1,67,2023-02-05T18:32:06+00:00,2.9743499755859,1,versionA_stim.csv,ReadVersion.csv,Read,Read1,CEILING,CARPET,Study1,M,15,41,Test,User,-,,Recall,Recall1,2781,,0,-1,-1,0,0,,1
6107d8ee8bd9a035d04f6d98,se3e4f8n1t,"Mediated Recall_Prolific",1,68,2023-02-05T18:32:07+00:00,1.1395261287689,1,versionA_stim.csv,ReadVersion.csv,Read,Read1,MAZE,PHONE,Study1,U,42,30,Test,User,-,,Recall,Recall1,953,,0,-1,-1,0,0,,1
6107d8ee8bd9a035d04f6d98,se3e4f8n1t,"Mediated Recall_Prolific",1,69,2023-02-05T18:32:08+00:00,1.0740320682526,1,versionA_stim.csv,ReadVersion.csv,Read,Read1,WORD,SENTENCE,Study1,F,27,11,Test,User,-,,Recall,Recall1,857,,0,-1,-1,0,0,,1
6107d8ee8bd9a035d04f6d98,se3e4f8n1t,"Mediated Recall_Prolific",1,70,2023-02-05T18:32:09+00:00,1.0457108020782,1,versionA_stim.csv,ReadVersion.csv,Read,Read1,STRETCH,CLOTH,Study1,U,37,35,Test,User,-,,Recall,Recall1,844,,0,-1,-1,0,0,,1
6107d8ee8bd9a035d04f6d98,se3e4f8n1t,"Mediated Recall_Prolific",1,71,2023-02-05T18:32:10+00:00,0.84565615653992,1,versionA_stim.csv,ReadVersion.csv,Read,Read1,FUZZY,BANG,Study1,U,50,14,Test,User,-,,Recall,Recall1,649,,0,-1,-1,0,0,,1
6107d8ee8bd9a035d04f6d98,se3e4f8n1t,"Mediated Recall_Prolific",1,72,2023-02-05T18:32:12+00:00,1.6070098876953,1,versionA_stim.csv,ReadVersion.csv,Read,Read1,HYGIENE,CLEAN,Study1,F,28,46,Test,User,-,,Recall,Recall1,1414,,0,-1,-1,0,0,,1
6107d8ee8bd9a035d04f6d98,se3e4f8n1t,"Mediated Recall_Prolific",1,73,2023-02-05T18:32:20+00:00,8.1514270305634,1,versionA_stim.csv,ReadVersion.csv,Read,Read1,ROUGH,SILK,Study1,M,10,10,Test,User,-,,Recall,Recall1,7950,,0,-1,-1,0,0,,1
6107d8ee8bd9a035d04f6d98,se3e4f8n1t,"Mediated Recall_Prolific",1,74,2023-02-05T18:32:33+00:00,13.061870098114,1,versionA_stim.csv,ReadVersion.csv,Read,Read1,SIGN,TICK,Study1,U,47,26,Test,User,-,,Recall,Recall1,12872,Ticks,88.888888888889,8902,10927,0,1,,1
6107d8ee8bd9a035d04f6d98,se3e4f8n1t,"Mediated Recall_Prolific",1,75,2023-02-05T18:32:35+00:00,1.6937718391418,1,versionA_stim.csv,ReadVersion.csv,Read,Read1,LION,STRIPES,Study1,M,6,9,Test,User,-,,Recall,Recall1,1500,,0,-1,-1,0,0,,1
6107d8ee8bd9a035d04f6d98,se3e4f8n1t,"Mediated Recall_Prolific",1,76,2023-02-05T18:32:36+00:00,1.1298151016235,1,versionA_stim.csv,ReadVersion.csv,Read,Read1,SWAN,BIRD,Study1,F,26,42,Test,User,-,,Recall,Recall1,919,,0,-1,-1,0,0,,1
6107d8ee8bd9a035d04f6d98,se3e4f8n1t,"Mediated Recall_Prolific",1,77,2023-02-05T18:32:37+00:00,1.0583479404449,1,versionA_stim.csv,ReadVersion.csv,Read,Read1,SOON,BELT,Study1,U,46,47,Test,User,-,,Recall,Recall1,850,,0,-1,-1,0,0,,1
6107d8ee8bd9a035d04f6d98,se3e4f8n1t,"Mediated Recall_Prolific",1,78,2023-02-05T18:32:40+00:00,3.357794046402,1,versionA_stim.csv,ReadVersion.csv,Read,Read1,HARD,COTTON,Study1,M,20,12,Test,User,-,,Recall,Recall1,3139,,0,-1,-1,0,0,,1
6107d8ee8bd9a035d04f6d98,se3e4f8n1t,"Mediated Recall_Prolific",1,79,2023-02-05T18:32:43+00:00,2.4035029411316,1,versionA_stim.csv,ReadVersion.csv,Read,Read1,HORSE,WHEEL,Study1,M,14,29,Test,User,-,,Recall,Recall1,2224,,0,-1,-1,0,0,,1
6107d8ee8bd9a035d04f6d98,se3e4f8n1t,"Mediated Recall_Prolific",1,80,2023-02-05T18:32:44+00:00,1.5243360996246,1,versionA_stim.csv,ReadVersion.csv,Read,Read1,WAGE,MONEY,Study1,F,22,38,Test,User,-,,Recall,Recall1,1327,,0,-1,-1,0,0,,1
6107d8ee8bd9a035d04f6d98,se3e4f8n1t,"Mediated Recall_Prolific",1,81,2023-02-05T18:32:49+00:00,5.3716509342194,1,versionA_stim.csv,ReadVersion.csv,Read,Read1,TUNA,FISH,Study1,F,35,49,Test,User,-,,Recall,Recall1,5183,Fish,100,2898,3367,1,1,,1
6107d8ee8bd9a035d04f6d98,se3e4f8n1t,"Mediated Recall_Prolific",1,82,2023-02-05T18:33:16+00:00,26.407498121262,1,versionA_stim.csv,ReadVersion.csv,Read,Read1,BIRTHDAY,PIE,Study1,M,9,25,Test,User,-,,Recall,Recall1,26093,,0,-1,-1,0,0,,1
6107d8ee8bd9a035d04f6d98,se3e4f8n1t,"Mediated Recall_Prolific",1,83,2023-02-05T18:33:17+00:00,1.4065039157867,1,versionA_stim.csv,ReadVersion.csv,Read,Read1,TOOTH,HAIR,Study1,M,19,45,Test,User,-,,Recall,Recall1,1215,,0,-1,-1,0,0,,1
6107d8ee8bd9a035d04f6d98,se3e4f8n1t,"Mediated Recall_Prolific",1,84,2023-02-05T18:33:18+00:00,1.0675799846649,1,versionA_stim.csv,ReadVersion.csv,Read,Read1,CAKE,HAND,Study1,U,49,7,Test,User,-,,Recall,Recall1,865,,0,-1,-1,0,0,,1
6107d8ee8bd9a035d04f6d98,se3e4f8n1t,"Mediated Recall_Prolific",1,85,2023-02-05T18:33:20+00:00,1.2318041324615,1,versionA_stim.csv,ReadVersion.csv,Read,Read1,BEACH,BOX,Study1,M,7,32,Test,User,-,,Recall,Recall1,1025,,0,-1,-1,0,0,,1
6107d8ee8bd9a035d04f6d98,se3e4f8n1t,"Mediated Recall_Prolific",1,86,2023-02-05T18:33:21+00:00,1.1948299407959,1,versionA_stim.csv,ReadVersion.csv,Read,Read1,CREDIT,CARD,Study1,F,33,34,Test,User,-,,Recall,Recall1,1001,,0,-1,-1,0,0,,1
6107d8ee8bd9a035d04f6d98,se3e4f8n1t,"Mediated Recall_Prolific",1,87,2023-02-05T18:33:22+00:00,1.4617459774017,1,versionA_stim.csv,ReadVersion.csv,Read,Read1,KEYS,ROD,Study1,U,45,37,Test,User,-,,Recall,Recall1,1269,,0,-1,-1,0,0,,1
6107d8ee8bd9a035d04f6d98,se3e4f8n1t,"Mediated Recall_Prolific",1,88,2023-02-05T18:33:23+00:00,0.99130797386169,1,versionA_stim.csv,ReadVersion.csv,Read,Read1,LISTEN,FICTION,Study1,U,44,33,Test,User,-,,Recall,Recall1,800,,0,-1,-1,0,0,,1
6107d8ee8bd9a035d04f6d98,se3e4f8n1t,"Mediated Recall_Prolific",1,89,2023-02-05T18:33:24+00:00,1.0260939598083,1,versionA_stim.csv,ReadVersion.csv,Read,Read1,WEDDING,FINGER,Study1,M,17,40,Test,User,-,,Recall,Recall1,823,,0,-1,-1,0,0,,1
6107d8ee8bd9a035d04f6d98,se3e4f8n1t,"Mediated Recall_Prolific",1,90,2023-02-05T18:33:26+00:00,1.3713629245758,1,versionA_stim.csv,ReadVersion.csv,Read,Read1,MULE,DONKEY,Study1,F,24,21,Test,User,-,,Recall,Recall1,1181,,0,-1,-1,0,0,,1
6107d8ee8bd9a035d04f6d98,se3e4f8n1t,"Mediated Recall_Prolific",1,91,2023-02-05T18:33:27+00:00,1.0926370620728,1,versionA_stim.csv,ReadVersion.csv,Read,Read1,TREE,SYRUP,Study1,M,11,48,Test,User,-,,Recall,Recall1,889,,0,-1,-1,0,0,,1
6107d8ee8bd9a035d04f6d98,se3e4f8n1t,"Mediated Recall_Prolific",1,92,2023-02-05T18:33:31+00:00,4.6693420410156,1,versionA_stim.csv,ReadVersion.csv,Read,Read1,MEAT,KEYS,Study1,U,41,44,Test,User,-,,Recall,Recall1,4480,,0,-1,-1,0,0,,1
6107d8ee8bd9a035d04f6d98,se3e4f8n1t,"Mediated Recall_Prolific",1,93,2023-02-05T18:33:40+00:00,8.497554063797,1,versionA_stim.csv,ReadVersion.csv,Read,Read1,ROOT,PLANT,Study1,F,25,43,Test,User,-,,Recall,Recall1,8163,Plant,100,5211,5871,1,1,,1
6107d8ee8bd9a035d04f6d98,se3e4f8n1t,"Mediated Recall_Prolific",1,94,2023-02-05T18:33:41+00:00,1.3578908443451,1,versionA_stim.csv,ReadVersion.csv,Read,Read1,SIP,DRINK,Study1,F,32,23,Test,User,-,,Recall,Recall1,1172,,0,-1,-1,0,0,,1
6107d8ee8bd9a035d04f6d98,se3e4f8n1t,"Mediated Recall_Prolific",1,95,2023-02-05T18:33:48+00:00,7.1088540554047,1,versionA_stim.csv,ReadVersion.csv,Read,Read1,MULE,DONKEY,Study1,F,30,16,Test,User,-,,Recall,Recall1,6906,donkey,100,2749,3805,1,1,,1
6107d8ee8bd9a035d04f6d98,se3e4f8n1t,"Mediated Recall_Prolific",1,96,2023-02-05T18:33:50+00:00,1.3983559608459,1,versionA_stim.csv,ReadVersion.csv,Read,Read1,ORCHID,FLOWER,Study1,F,34,15,Test,User,-,,Recall,Recall1,1202,,0,-1,-1,0,0,,1
6107d8ee8bd9a035d04f6d98,se3e4f8n1t,"Mediated Recall_Prolific",1,97,2023-02-05T18:33:51+00:00,1.384045124054,1,versionA_stim.csv,ReadVersion.csv,Read,Read1,GIVE,STEAK,Study1,U,38,20,Test,User,-,,Recall,Recall1,1177,,0,-1,-1,0,0,,1
6107d8ee8bd9a035d04f6d98,se3e4f8n1t,"Mediated Recall_Prolific",1,98,2023-02-05T18:33:52+00:00,1.1771998405457,1,versionA_stim.csv,ReadVersion.csv,Read,Read1,DAY,DARK,Study1,M,18,17,Test,User,-,,Recall,Recall1,972,,0,-1,-1,0,0,,1
6107d8ee8bd9a035d04f6d98,se3e4f8n1t,"Mediated Recall_Prolific",1,99,2023-02-05T18:33:57+00:00,4.6303100585938,1,versionA_stim.csv,ReadVersion.csv,Read,Read1,SCALP,HEAD,Study1,F,23,51,Test,User,-,,Recall,Recall1,4437,,0,-1,-1,0,0,,1
6107d8ee8bd9a035d04f6d98,se3e4f8n1t,"Mediated Recall_Prolific",1,100,2023-02-05T18:33:58+00:00,1.027871131897,1,versionA_stim.csv,ReadVersion.csv,Read,Read1,CIRCLE,DANCE,Study1,M,13,36,Test,User,-,,Recall,Recall1,840,,0,-1,-1,0,0,,1
6107d8ee8bd9a035d04f6d98,se3e4f8n1t,"Mediated Recall_Prolific",1,101,2023-02-05T18:34:00+00:00,2.0518138408661,1,versionA_stim.csv,ReadVersion.csv,Read,Read1,CRACKLE,ELECTION,Study1,U,39,8,Test,User,-,,Recall,Recall1,1856,,0,-1,-1,0,0,,1
6107d8ee8bd9a035d04f6d98,se3e4f8n1t,"Mediated Recall_Prolific",1,102,2023-02-05T18:34:01+00:00,1.3934149742126,1,versionA_stim.csv,ReadVersion.csv,Read,Read1,TEMPERATURE,MORNING,Study1,U,48,28,Test,User,-,,Recall,Recall1,1199,,0,-1,-1,0,0,,1
6107d8ee8bd9a035d04f6d98,se3e4f8n1t,"Mediated Recall_Prolific",1,103,2023-02-05T18:34:03+00:00,1.401652097702,1,versionA_stim.csv,ReadVersion.csv,Read,Read1,SHELL,SHAKE,Study1,U,43,39,Test,User,-,,Recall,Recall1,1204,,0,-1,-1,0,0,,1
6107d8ee8bd9a035d04f6d98,se3e4f8n1t,"Mediated Recall_Prolific",1,104,2023-02-05T18:34:04+00:00,1.1518340110779,1,versionA_stim.csv,ReadVersion.csv,Read,Read1,AFFECTION,LOVE,Study1,F,31,27,Test,User,-,,Recall,Recall1,949,,0,-1,-1,0,0,,1
6107d8ee8bd9a035d04f6d98,se3e4f8n1t,"Mediated Recall_Prolific",1,105,2023-02-05T18:34:10+00:00,6.5339999198914,1,versionA_stim.csv,ReadVersion.csv,Read,Read1,NAP,SLEEP,Study1,F,29,22,Test,User,-,,Recall,Recall1,6201,sleep,100,2601,3739,1,1,,1
6107d8ee8bd9a035d04f6d98,se3e4f8n1t,"Mediated Recall_Prolific",1,106,2023-02-05T18:34:22+00:00,12.006441116333,1,versionA_stim.csv,ReadVersion.csv,Read,Read1,,,,,,0,Instruct,-,10,"You will now be presented with a new set of word pairs. Please study each pair. Remember that your memory will be tested! When finished, press Enter to move to the next pair.",Initial_Instruct,Instruct4,11803,,,-1,-1,,,,1
6107d8ee8bd9a035d04f6d98,se3e4f8n1t,"Mediated Recall_Prolific",1,107,2023-02-05T18:34:25+00:00,2.9838528633118,1,versionA_stim.csv,ReadVersion.csv,Read,Read1,,,,,,0,Instruct,User,-,"Press Enter when you are readty to begin",,Instruct11,2791,,,-1,-1,,,,1
6107d8ee8bd9a035d04f6d98,se3e4f8n1t,"Mediated Recall_Prolific",1,108,2023-02-05T18:34:30+00:00,4.9139912128448,1,versionA_stim.csv,ReadVersion.csv,Read,Read1,OCTOBER,SPOOKY,BUFFER3,Buffer,60,60,Study,User,-,,Study/JOL,BUFFER2,4715,,,-1,-1,,,,1
6107d8ee8bd9a035d04f6d98,se3e4f8n1t,"Mediated Recall_Prolific",1,109,2023-02-05T18:34:34+00:00,3.9469177722931,1,versionA_stim.csv,ReadVersion.csv,Read,Read1,SHRIMP,FISH,BUFFER4,Buffer,108,108,Study,User,-,,Study/JOL,BUFFER2,3754,,,-1,-1,,,,1
6107d8ee8bd9a035d04f6d98,se3e4f8n1t,"Mediated Recall_Prolific",1,110,2023-02-05T18:34:38+00:00,4.0569050312042,1,versionA_stim.csv,ReadVersion.csv,Read,Read1,MALT,CHOCOLATE,BUFFER2,Buffer,53,53,Study,User,-,,Study/JOL,BUFFER2,3855,,,-1,-1,,,,1
6107d8ee8bd9a035d04f6d98,se3e4f8n1t,"Mediated Recall_Prolific",1,111,2023-02-05T18:34:43+00:00,4.7800140380859,1,versionA_stim.csv,ReadVersion.csv,Read,Read1,GEESE,GOOSE,BUFFER2,Buffer,51,55,Study,User,-,,Study/JOL,BUFFER2,4577,,,-1,-1,,,,1
6107d8ee8bd9a035d04f6d98,se3e4f8n1t,"Mediated Recall_Prolific",1,112,2023-02-05T18:34:46+00:00,2.9419660568237,1,versionA_stim.csv,ReadVersion.csv,Read,Read1,MONTH,YEAR,BUFFER3,Buffer,57,58,Study,User,-,,Study/JOL,BUFFER2,2757,,,-1,-1,,,,1
6107d8ee8bd9a035d04f6d98,se3e4f8n1t,"Mediated Recall_Prolific",1,113,2023-02-05T18:34:49+00:00,3.2647819519043,1,versionA_stim.csv,ReadVersion.csv,Read,Read1,RAKE,SEED,Study2,M,69,105,Study,User,-,,Study/JOL,"Study Phase2",3081,,,-1,-1,,,,1
6107d8ee8bd9a035d04f6d98,se3e4f8n1t,"Mediated Recall_Prolific",1,114,2023-02-05T18:34:53+00:00,3.4886770248413,1,versionA_stim.csv,ReadVersion.csv,Read,Read1,NURSE,LAWYER,Study2,M,66,96,Study,User,-,,Study/JOL,"Study Phase2",3287,,,-1,-1,,,,1
6107d8ee8bd9a035d04f6d98,se3e4f8n1t,"Mediated Recall_Prolific",1,115,2023-02-05T18:34:56+00:00,2.9856779575348,1,versionA_stim.csv,ReadVersion.csv,Read,Read1,HAPPY,CAR,Study2,U,92,87,Study,User,-,,Study/JOL,"Study Phase2",2802,,,-1,-1,,,,1
6107d8ee8bd9a035d04f6d98,se3e4f8n1t,"Mediated Recall_Prolific",1,116,2023-02-05T18:34:59+00:00,2.6971340179443,1,versionA_stim.csv,ReadVersion.csv,Read,Read1,BRIDGE,WATER,Study2,F,90,64,Study,User,-,,Study/JOL,"Study Phase2",2506,,,-1,-1,,,,1
6107d8ee8bd9a035d04f6d98,se3e4f8n1t,"Mediated Recall_Prolific",1,117,2023-02-05T18:35:01+00:00,2.6152610778809,1,versionA_stim.csv,ReadVersion.csv,Read,Read1,HEAVY,FEATHER,Study2,M,68,72,Study,User,-,,Study/JOL,"Study Phase2",2412,,,-1,-1,,,,1
6107d8ee8bd9a035d04f6d98,se3e4f8n1t,"Mediated Recall_Prolific",1,118,2023-02-05T18:35:04+00:00,2.595006942749,1,versionA_stim.csv,ReadVersion.csv,Read,Read1,FEUD,FIGHT,Study2,F,86,99,Study,User,-,,Study/JOL,"Study Phase2",2406,,,-1,-1,,,,1
6107d8ee8bd9a035d04f6d98,se3e4f8n1t,"Mediated Recall_Prolific",1,119,2023-02-05T18:35:06+00:00,2.4378061294556,1,versionA_stim.csv,ReadVersion.csv,Read,Read1,VALLEY,PEAK,Study2,M,73,75,Study,User,-,,Study/JOL,"Study Phase2",2237,,,-1,-1,,,,1
6107d8ee8bd9a035d04f6d98,se3e4f8n1t,"Mediated Recall_Prolific",1,120,2023-02-05T18:35:10+00:00,3.6990947723389,1,versionA_stim.csv,ReadVersion.csv,Read,Read1,KING,VASE,Study2,U,91,93,Study,User,-,,Study/JOL,"Study Phase2",3510,,,-1,-1,,,,1
6107d8ee8bd9a035d04f6d98,se3e4f8n1t,"Mediated Recall_Prolific",1,121,2023-02-05T18:35:12+00:00,1.897714138031,1,versionA_stim.csv,ReadVersion.csv,Read,Read1,DOCUMENT,PAPER,Study2,F,82,85,Study,User,-,,Study/JOL,"Study Phase2",1707,,,-1,-1,,,,1
6107d8ee8bd9a035d04f6d98,se3e4f8n1t,"Mediated Recall_Prolific",1,122,2023-02-05T18:35:14+00:00,2.2279450893402,1,versionA_stim.csv,ReadVersion.csv,Read,Read1,SOAP,DRINK,Study2,M,67,71,Study,User,-,,Study/JOL,"Study Phase2",2024,,,-1,-1,,,,1
6107d8ee8bd9a035d04f6d98,se3e4f8n1t,"Mediated Recall_Prolific",1,123,2023-02-05T18:35:16+00:00,2.3658308982849,1,versionA_stim.csv,ReadVersion.csv,Read,Read1,ATTIRE,CLOTHES,Study2,F,79,66,Study,User,-,,Study/JOL,"Study Phase2",2174,,,-1,-1,,,,1
6107d8ee8bd9a035d04f6d98,se3e4f8n1t,"Mediated Recall_Prolific",1,124,2023-02-05T18:35:20+00:00,3.3213319778442,1,versionA_stim.csv,ReadVersion.csv,Read,Read1,PANTS,COLLAR,Study2,M,63,95,Study,User,-,,Study/JOL,"Study Phase2",3122,,,-1,-1,,,,1
6107d8ee8bd9a035d04f6d98,se3e4f8n1t,"Mediated Recall_Prolific",1,125,2023-02-05T18:35:22+00:00,2.6110811233521,1,versionA_stim.csv,ReadVersion.csv,Read,Read1,REALITY,ISLAND,Study2,M,64,92,Study,User,-,,Study/JOL,"Study Phase2",2416,,,-1,-1,,,,1
6107d8ee8bd9a035d04f6d98,se3e4f8n1t,"Mediated Recall_Prolific",1,126,2023-02-05T18:35:29+00:00,6.6125087738037,1,versionA_stim.csv,ReadVersion.csv,Read,Read1,ART,WOLF,Study2,U,93,81,Study,User,-,,Study/JOL,"Study Phase2",6273,,,-1,-1,,,,1
6107d8ee8bd9a035d04f6d98,se3e4f8n1t,"Mediated Recall_Prolific",1,127,2023-02-05T18:35:32+00:00,2.8655741214752,1,versionA_stim.csv,ReadVersion.csv,Read,Read1,DIETARY,SACK,Study2,U,97,103,Study,User,-,,Study/JOL,"Study Phase2",2681,,,-1,-1,,,,1
6107d8ee8bd9a035d04f6d98,se3e4f8n1t,"Mediated Recall_Prolific",1,128,2023-02-05T18:35:34+00:00,2.0328729152679,1,versionA_stim.csv,ReadVersion.csv,Read,Read1,LEAGUE,BASEBALL,Study2,F,84,86,Study,User,-,,Study/JOL,"Study Phase2",1852,,,-1,-1,,,,1
6107d8ee8bd9a035d04f6d98,se3e4f8n1t,"Mediated Recall_Prolific",1,129,2023-02-05T18:35:36+00:00,1.8711960315704,1,versionA_stim.csv,ReadVersion.csv,Read,Read1,HORNET,STING,Study2,F,85,94,Study,User,-,,Study/JOL,"Study Phase2",1678,,,-1,-1,,,,1
6107d8ee8bd9a035d04f6d98,se3e4f8n1t,"Mediated Recall_Prolific",1,130,2023-02-05T18:35:41+00:00,5.1536660194397,1,versionA_stim.csv,ReadVersion.csv,Read,Read1,ARTERY,BRONZE,Study2,U,103,101,Study,User,-,,Study/JOL,"Study Phase2",4916,,,-1,-1,,,,1
6107d8ee8bd9a035d04f6d98,se3e4f8n1t,"Mediated Recall_Prolific",1,131,2023-02-05T18:35:45+00:00,3.9723739624023,1,versionA_stim.csv,ReadVersion.csv,Read,Read1,RAZOR,MUSCLE,Study2,M,75,82,Study,User,-,,Study/JOL,"Study Phase2",3775,,,-1,-1,,,,1
6107d8ee8bd9a035d04f6d98,se3e4f8n1t,"Mediated Recall_Prolific",1,132,2023-02-05T18:35:47+00:00,2.3606941699982,1,versionA_stim.csv,ReadVersion.csv,Read,Read1,CHILL,COLD,Study2,F,87,63,Study,User,-,,Study/JOL,"Study Phase2",2165,,,-1,-1,,,,1
6107d8ee8bd9a035d04f6d98,se3e4f8n1t,"Mediated Recall_Prolific",1,133,2023-02-05T18:35:50+00:00,2.5221889019012,1,versionA_stim.csv,ReadVersion.csv,Read,Read1,WINDOW,KNOB,Study2,M,74,100,Study,User,-,,Study/JOL,"Study Phase2",2333,,,-1,-1,,,,1
6107d8ee8bd9a035d04f6d98,se3e4f8n1t,"Mediated Recall_Prolific",1,134,2023-02-05T18:35:51+00:00,1.43630194664,1,versionA_stim.csv,ReadVersion.csv,Read,Read1,BENCH,HORN,Study2,U,98,84,Study,User,-,,Study/JOL,"Study Phase2",1068,,,-1,-1,,,,1
6107d8ee8bd9a035d04f6d98,se3e4f8n1t,"Mediated Recall_Prolific",1,135,2023-02-05T18:35:53+00:00,1.3994760513306,1,versionA_stim.csv,ReadVersion.csv,Read,Read1,OVEN,BASKET,Study2,M,71,102,Study,User,-,,Study/JOL,"Study Phase2",1182,,,-1,-1,,,,1
6107d8ee8bd9a035d04f6d98,se3e4f8n1t,"Mediated Recall_Prolific",1,136,2023-02-05T18:35:54+00:00,1.2175829410553,1,versionA_stim.csv,ReadVersion.csv,Read,Read1,TRAP,CAVE,Study2,M,70,69,Study,User,-,,Study/JOL,"Study Phase2",1017,,,-1,-1,,,,1
6107d8ee8bd9a035d04f6d98,se3e4f8n1t,"Mediated Recall_Prolific",1,137,2023-02-05T18:35:55+00:00,1.2789270877838,1,versionA_stim.csv,ReadVersion.csv,Read,Read1,GRILL,THIGH,Study2,M,72,70,Study,User,-,,Study/JOL,"Study Phase2",1079,,,-1,-1,,,,1
6107d8ee8bd9a035d04f6d98,se3e4f8n1t,"Mediated Recall_Prolific",1,138,2023-02-05T18:35:56+00:00,1.1960198879242,1,versionA_stim.csv,ReadVersion.csv,Read,Read1,BOTH,OUNCE,Study2,U,102,88,Study,User,-,,Study/JOL,"Study Phase2",1005,,,-1,-1,,,,1
6107d8ee8bd9a035d04f6d98,se3e4f8n1t,"Mediated Recall_Prolific",1,139,2023-02-05T18:35:58+00:00,2.0398800373077,1,versionA_stim.csv,ReadVersion.csv,Read,Read1,SCHOOL,STOP,Study2,M,62,97,Study,User,-,,Study/JOL,"Study Phase2",1844,,,-1,-1,,,,1
6107d8ee8bd9a035d04f6d98,se3e4f8n1t,"Mediated Recall_Prolific",1,140,2023-02-05T18:36:00+00:00,1.737478017807,1,versionA_stim.csv,ReadVersion.csv,Read,Read1,CACTUS,PLANT,Study2,F,76,90,Study,User,-,,Study/JOL,"Study Phase2",1535,,,-1,-1,,,,1
6107d8ee8bd9a035d04f6d98,se3e4f8n1t,"Mediated Recall_Prolific",1,141,2023-02-05T18:36:01+00:00,1.3621220588684,1,versionA_stim.csv,ReadVersion.csv,Read,Read1,DEATH,BUSINESS,Study2,U,99,76,Study,User,-,,Study/JOL,"Study Phase2",1162,,,-1,-1,,,,1
6107d8ee8bd9a035d04f6d98,se3e4f8n1t,"Mediated Recall_Prolific",1,142,2023-02-05T18:36:02+00:00,1.0103430747986,1,versionA_stim.csv,ReadVersion.csv,Read,Read1,SUMMER,SNOW,Study2,M,61,62,Study,User,-,,Study/JOL,"Study Phase2",823,,,-1,-1,,,,1
6107d8ee8bd9a035d04f6d98,se3e4f8n1t,"Mediated Recall_Prolific",1,143,2023-02-05T18:36:04+00:00,1.289755821228,1,versionA_stim.csv,ReadVersion.csv,Read,Read1,WASP,BUG,Study2,F,89,65,Study,User,-,,Study/JOL,"Study Phase2",1067,,,-1,-1,,,,1
6107d8ee8bd9a035d04f6d98,se3e4f8n1t,"Mediated Recall_Prolific",1,144,2023-02-05T18:36:06+00:00,2.0717711448669,1,versionA_stim.csv,ReadVersion.csv,Read,Read1,CASH,LEG,Study2,U,105,106,Study,User,-,,Study/JOL,"Study Phase2",1874,,,-1,-1,,,,1
6107d8ee8bd9a035d04f6d98,se3e4f8n1t,"Mediated Recall_Prolific",1,145,2023-02-05T18:36:09+00:00,2.8276419639587,1,versionA_stim.csv,ReadVersion.csv,Read,Read1,STRONG,ACCIDENT,Study2,U,94,74,Study,User,-,,Study/JOL,"Study Phase2",2628,,,-1,-1,,,,1
6107d8ee8bd9a035d04f6d98,se3e4f8n1t,"Mediated Recall_Prolific",1,146,2023-02-05T18:36:11+00:00,2.0306808948517,1,versionA_stim.csv,ReadVersion.csv,Read,Read1,INCENSE,SMELL,Study2,F,83,104,Study,User,-,,Study/JOL,"Study Phase2",1849,,,-1,-1,,,,1
6107d8ee8bd9a035d04f6d98,se3e4f8n1t,"Mediated Recall_Prolific",1,147,2023-02-05T18:36:13+00:00,2.3747639656067,1,versionA_stim.csv,ReadVersion.csv,Read,Read1,PUSH,CLUTTER,Study2,U,96,78,Study,User,-,,Study/JOL,"Study Phase2",2182,,,-1,-1,,,,1
6107d8ee8bd9a035d04f6d98,se3e4f8n1t,"Mediated Recall_Prolific",1,148,2023-02-05T18:36:16+00:00,2.8163220882416,1,versionA_stim.csv,ReadVersion.csv,Read,Read1,EYES,SMELL,Study2,M,65,79,Study,User,-,,Study/JOL,"Study Phase2",2607,,,-1,-1,,,,1
6107d8ee8bd9a035d04f6d98,se3e4f8n1t,"Mediated Recall_Prolific",1,149,2023-02-05T18:36:18+00:00,2.3144659996033,1,versionA_stim.csv,ReadVersion.csv,Read,Read1,HERD,COW,Study2,F,88,80,Study,User,-,,Study/JOL,"Study Phase2",2115,,,-1,-1,,,,1
6107d8ee8bd9a035d04f6d98,se3e4f8n1t,"Mediated Recall_Prolific",1,150,2023-02-05T18:36:20+00:00,1.9893000125885,1,versionA_stim.csv,ReadVersion.csv,Read,Read1,CHISEL,HAMMER,Study2,F,78,77,Study,User,-,,Study/JOL,"Study Phase2",1791,,,-1,-1,,,,1
6107d8ee8bd9a035d04f6d98,se3e4f8n1t,"Mediated Recall_Prolific",1,151,2023-02-05T18:36:25+00:00,4.7424650192261,1,versionA_stim.csv,ReadVersion.csv,Read,Read1,SICK,HIDE,Study2,U,100,91,Study,User,-,,Study/JOL,"Study Phase2",4554,,,-1,-1,,,,1
6107d8ee8bd9a035d04f6d98,se3e4f8n1t,"Mediated Recall_Prolific",1,152,2023-02-05T18:36:31+00:00,6.2382380962372,1,versionA_stim.csv,ReadVersion.csv,Read,Read1,LEASE,TOIL,Study2,U,101,73,Study,User,-,,Study/JOL,"Study Phase2",5894,,,-1,-1,,,,1
6107d8ee8bd9a035d04f6d98,se3e4f8n1t,"Mediated Recall_Prolific",1,153,2023-02-05T18:36:33+00:00,1.8382539749146,1,versionA_stim.csv,ReadVersion.csv,Read,Read1,CHERRY,RED,Study2,F,80,67,Study,User,-,,Study/JOL,"Study Phase2",1641,,,-1,-1,,,,1
6107d8ee8bd9a035d04f6d98,se3e4f8n1t,"Mediated Recall_Prolific",1,154,2023-02-05T18:36:35+00:00,2.2742538452148,1,versionA_stim.csv,ReadVersion.csv,Read,Read1,CHOP,CUT,Study2,F,77,83,Study,User,-,,Study/JOL,"Study Phase2",2083,,,-1,-1,,,,1
6107d8ee8bd9a035d04f6d98,se3e4f8n1t,"Mediated Recall_Prolific",1,155,2023-02-05T18:36:37+00:00,1.9134390354156,1,versionA_stim.csv,ReadVersion.csv,Read,Read1,MIRROR,CHILDREN,Study2,U,104,98,Study,User,-,,Study/JOL,"Study Phase2",1652,,,-1,-1,,,,1
6107d8ee8bd9a035d04f6d98,se3e4f8n1t,"Mediated Recall_Prolific",1,156,2023-02-05T18:36:39+00:00,1.7159440517426,1,versionA_stim.csv,ReadVersion.csv,Read,Read1,BLAZE,FIRE,Study2,F,81,68,Study,User,-,,Study/JOL,"Study Phase2",1516,,,-1,-1,,,,1
6107d8ee8bd9a035d04f6d98,se3e4f8n1t,"Mediated Recall_Prolific",1,157,2023-02-05T18:36:41+00:00,1.8056299686432,1,versionA_stim.csv,ReadVersion.csv,Read,Read1,SUGAR,RIDDLE,Study2,U,95,89,Study,User,-,,Study/JOL,"Study Phase2",1607,,,-1,-1,,,,1
6107d8ee8bd9a035d04f6d98,se3e4f8n1t,"Mediated Recall_Prolific",1,158,2023-02-05T18:36:42+00:00,1.6566119194031,1,versionA_stim.csv,ReadVersion.csv,Read,Read1,SHERRIF,POLICE,BUFFER2,Buffer,52,54,Study,User,-,,Study/JOL,BUFFER2,1467,,,-1,-1,,,,1
6107d8ee8bd9a035d04f6d98,se3e4f8n1t,"Mediated Recall_Prolific",1,159,2023-02-05T18:36:44+00:00,1.555456161499,1,versionA_stim.csv,ReadVersion.csv,Read,Read1,CAMP,ADVENTURE,BUFFER4,Buffer,110,111,Study,User,-,,Study/JOL,BUFFER2,1363,,,-1,-1,,,,1
6107d8ee8bd9a035d04f6d98,se3e4f8n1t,"Mediated Recall_Prolific",1,160,2023-02-05T18:36:45+00:00,1.5809669494629,1,versionA_stim.csv,ReadVersion.csv,Read,Read1,ICE,FROZEN,BUFFER4,Buffer,109,107,Study,User,-,,Study/JOL,BUFFER2,1371,,,-1,-1,,,,1
6107d8ee8bd9a035d04f6d98,se3e4f8n1t,"Mediated Recall_Prolific",1,161,2023-02-05T18:36:47+00:00,1.4648740291595,1,versionA_stim.csv,ReadVersion.csv,Read,Read1,MOON,SPACE,BUFFER2,Buffer,54,56,Study,User,-,,Study/JOL,BUFFER2,1264,,,-1,-1,,,,1
6107d8ee8bd9a035d04f6d98,se3e4f8n1t,"Mediated Recall_Prolific",1,162,2023-02-05T18:36:49+00:00,1.9603478908539,1,versionA_stim.csv,ReadVersion.csv,Read,Read1,CARROT,POTATO,BUFFER4,Buffer,106,109,Study,User,-,,Study/JOL,BUFFER2,1770,,,-1,-1,,,,1
6107d8ee8bd9a035d04f6d98,se3e4f8n1t,"Mediated Recall_Prolific",1,163,2023-02-05T18:36:51+00:00,2.2299621105194,1,versionA_stim.csv,ReadVersion.csv,Read,Read1,,,,,,0,Instruct,User,-,"You have completed this section. Please press Enter.",Filler_Instruction,Instruct2,2039,,,-1,-1,,,,1
6107d8ee8bd9a035d04f6d98,se3e4f8n1t,"Mediated Recall_Prolific",1,164,2023-02-05T18:38:51+00:00,120.32055783272,1,versionA_stim.csv,ReadVersion.csv,Read,Read1,,,,,,0,FreeRecall,120,120,"Please list the 50 US states in alphabetical order. The task will automatically advance to the next screen after two minutes.",,Filler1,120000,"Florida georgia Hawaii Illinois kentucky Maine North Dakota South Dakota Oregon Rhode Island New York New Jersey Virginia California Washington Idaho Colorado",0,6134,119790,0,0,,1
6107d8ee8bd9a035d04f6d98,se3e4f8n1t,"Mediated Recall_Prolific",1,165,2023-02-05T18:39:03+00:00,11.127211093903,1,versionA_stim.csv,ReadVersion.csv,Read,Read1,,,,,,0,Instruct,-,10,"You will now be presented with the first word from each of the previously studied item pairs. Please type the missing word. If you do not know the word, you may guess or press Enter to skip forward to the next pair.",,Instruct3,10928,,,-1,-1,,,,1
6107d8ee8bd9a035d04f6d98,se3e4f8n1t,"Mediated Recall_Prolific",1,166,2023-02-05T18:39:06+00:00,3.5884149074554,1,versionA_stim.csv,ReadVersion.csv,Read,Read1,LEAGUE,BASEBALL,Study2,F,84,86,Test,User,-,,Recall,Recall2,3384,,0,-1,-1,0,0,,1
6107d8ee8bd9a035d04f6d98,se3e4f8n1t,"Mediated Recall_Prolific",1,167,2023-02-05T18:39:08+00:00,1.7452261447906,1,versionA_stim.csv,ReadVersion.csv,Read,Read1,INCENSE,SMELL,Study2,F,83,104,Test,User,-,,Recall,Recall2,1542,,0,-1,-1,0,0,,1
6107d8ee8bd9a035d04f6d98,se3e4f8n1t,"Mediated Recall_Prolific",1,168,2023-02-05T18:39:10+00:00,2.1019718647003,1,versionA_stim.csv,ReadVersion.csv,Read,Read1,DIETARY,SACK,Study2,U,97,103,Test,User,-,,Recall,Recall2,1908,,0,-1,-1,0,0,,1
6107d8ee8bd9a035d04f6d98,se3e4f8n1t,"Mediated Recall_Prolific",1,169,2023-02-05T18:39:12+00:00,1.5754761695862,1,versionA_stim.csv,ReadVersion.csv,Read,Read1,SCHOOL,STOP,Study2,M,62,97,Test,User,-,,Recall,Recall2,1369,,0,-1,-1,0,0,,1
6107d8ee8bd9a035d04f6d98,se3e4f8n1t,"Mediated Recall_Prolific",1,170,2023-02-05T18:39:13+00:00,1.2660670280457,1,versionA_stim.csv,ReadVersion.csv,Read,Read1,SUGAR,RIDDLE,Study2,U,95,89,Test,User,-,,Recall,Recall2,1073,,0,-1,-1,0,0,,1
6107d8ee8bd9a035d04f6d98,se3e4f8n1t,"Mediated Recall_Prolific",1,171,2023-02-05T18:39:14+00:00,1.1383910179138,1,versionA_stim.csv,ReadVersion.csv,Read,Read1,LEASE,TOIL,Study2,U,101,73,Test,User,-,,Recall,Recall2,941,,0,-1,-1,0,0,,1
6107d8ee8bd9a035d04f6d98,se3e4f8n1t,"Mediated Recall_Prolific",1,172,2023-02-05T18:39:23+00:00,9.0087158679962,1,versionA_stim.csv,ReadVersion.csv,Read,Read1,WASP,BUG,Study2,F,89,65,Test,User,-,,Recall,Recall2,8679,Sting,25,5376,6000,0,0,,1
6107d8ee8bd9a035d04f6d98,se3e4f8n1t,"Mediated Recall_Prolific",1,173,2023-02-05T18:39:31+00:00,8.3115880489349,1,versionA_stim.csv,ReadVersion.csv,Read,Read1,CHERRY,RED,Study2,F,80,67,Test,User,-,,Recall,Recall2,8116,Red,100,1936,5555,1,1,,1
6107d8ee8bd9a035d04f6d98,se3e4f8n1t,"Mediated Recall_Prolific",1,174,2023-02-05T18:39:33+00:00,1.4857828617096,1,versionA_stim.csv,ReadVersion.csv,Read,Read1,ART,WOLF,Study2,U,93,81,Test,User,-,,Recall,Recall2,1298,,0,-1,-1,0,0,,1
6107d8ee8bd9a035d04f6d98,se3e4f8n1t,"Mediated Recall_Prolific",1,175,2023-02-05T18:39:34+00:00,1.1690831184387,1,versionA_stim.csv,ReadVersion.csv,Read,Read1,STRONG,ACCIDENT,Study2,U,94,74,Test,User,-,,Recall,Recall2,966,,0,-1,-1,0,0,,1
6107d8ee8bd9a035d04f6d98,se3e4f8n1t,"Mediated Recall_Prolific",1,176,2023-02-05T18:39:36+00:00,2.3891630172729,1,versionA_stim.csv,ReadVersion.csv,Read,Read1,HAPPY,CAR,Study2,U,92,87,Test,User,-,,Recall,Recall2,2194,,0,-1,-1,0,0,,1
6107d8ee8bd9a035d04f6d98,se3e4f8n1t,"Mediated Recall_Prolific",1,177,2023-02-05T18:39:38+00:00,1.7165660858154,1,versionA_stim.csv,ReadVersion.csv,Read,Read1,MIRROR,CHILDREN,Study2,U,104,98,Test,User,-,,Recall,Recall2,1527,,0,-1,-1,0,0,,1
6107d8ee8bd9a035d04f6d98,se3e4f8n1t,"Mediated Recall_Prolific",1,178,2023-02-05T18:39:40+00:00,1.7929489612579,1,versionA_stim.csv,ReadVersion.csv,Read,Read1,PUSH,CLUTTER,Study2,U,96,78,Test,User,-,,Recall,Recall2,1588,,0,-1,-1,0,0,,1
6107d8ee8bd9a035d04f6d98,se3e4f8n1t,"Mediated Recall_Prolific",1,179,2023-02-05T18:39:47+00:00,7.2767539024353,1,versionA_stim.csv,ReadVersion.csv,Read,Read1,PANTS,COLLAR,Study2,M,63,95,Test,User,-,,Recall,Recall2,7076,collar,100,4068,4815,1,1,,1
6107d8ee8bd9a035d04f6d98,se3e4f8n1t,"Mediated Recall_Prolific",1,180,2023-02-05T18:39:49+00:00,1.8711159229279,1,versionA_stim.csv,ReadVersion.csv,Read,Read1,DOCUMENT,PAPER,Study2,F,82,85,Test,User,-,,Recall,Recall2,1669,,0,-1,-1,0,0,,1
6107d8ee8bd9a035d04f6d98,se3e4f8n1t,"Mediated Recall_Prolific",1,181,2023-02-05T18:39:50+00:00,1.4568982124329,1,versionA_stim.csv,ReadVersion.csv,Read,Read1,FEUD,FIGHT,Study2,F,86,99,Test,User,-,,Recall,Recall2,1266,,0,-1,-1,0,0,,1
6107d8ee8bd9a035d04f6d98,se3e4f8n1t,"Mediated Recall_Prolific",1,182,2023-02-05T18:39:52+00:00,1.3585698604584,1,versionA_stim.csv,ReadVersion.csv,Read,Read1,CACTUS,PLANT,Study2,F,76,90,Test,User,-,,Recall,Recall2,1151,,0,-1,-1,0,0,,1
6107d8ee8bd9a035d04f6d98,se3e4f8n1t,"Mediated Recall_Prolific",1,183,2023-02-05T18:39:58+00:00,6.259171962738,1,versionA_stim.csv,ReadVersion.csv,Read,Read1,REALITY,ISLAND,Study2,M,64,92,Test,User,-,,Recall,Recall2,6059,island,100,3299,3972,1,1,,1
6107d8ee8bd9a035d04f6d98,se3e4f8n1t,"Mediated Recall_Prolific",1,184,2023-02-05T18:40:02+00:00,4.2151980400085,1,versionA_stim.csv,ReadVersion.csv,Read,Read1,ATTIRE,CLOTHES,Study2,F,79,66,Test,User,-,,Recall,Recall2,4024,,0,-1,-1,0,0,,1
6107d8ee8bd9a035d04f6d98,se3e4f8n1t,"Mediated Recall_Prolific",1,185,2023-02-05T18:40:06+00:00,3.7259960174561,1,versionA_stim.csv,ReadVersion.csv,Read,Read1,CHILL,COLD,Study2,F,87,63,Test,User,-,,Recall,Recall2,3522,,0,-1,-1,0,0,,1
6107d8ee8bd9a035d04f6d98,se3e4f8n1t,"Mediated Recall_Prolific",1,186,2023-02-05T18:40:08+00:00,2.1133959293365,1,versionA_stim.csv,ReadVersion.csv,Read,Read1,KING,VASE,Study2,U,91,93,Test,User,-,,Recall,Recall2,1900,,0,-1,-1,0,0,,1
6107d8ee8bd9a035d04f6d98,se3e4f8n1t,"Mediated Recall_Prolific",1,187,2023-02-05T18:40:09+00:00,1.2329139709473,1,versionA_stim.csv,ReadVersion.csv,Read,Read1,WINDOW,KNOB,Study2,M,74,100,Test,User,-,,Recall,Recall2,1038,,0,-1,-1,0,0,,1
6107d8ee8bd9a035d04f6d98,se3e4f8n1t,"Mediated Recall_Prolific",1,188,2023-02-05T18:40:11+00:00,1.1971800327301,1,versionA_stim.csv,ReadVersion.csv,Read,Read1,CASH,LEG,Study2,U,105,106,Test,User,-,,Recall,Recall2,1000,,0,-1,-1,0,0,,1
6107d8ee8bd9a035d04f6d98,se3e4f8n1t,"Mediated Recall_Prolific",1,189,2023-02-05T18:40:12+00:00,1.4147691726685,1,versionA_stim.csv,ReadVersion.csv,Read,Read1,RAZOR,MUSCLE,Study2,M,75,82,Test,User,-,,Recall,Recall2,1223,,0,-1,-1,0,0,,1
6107d8ee8bd9a035d04f6d98,se3e4f8n1t,"Mediated Recall_Prolific",1,190,2023-02-05T18:40:21+00:00,8.8399059772491,1,versionA_stim.csv,ReadVersion.csv,Read,Read1,ARTERY,BRONZE,Study2,U,103,101,Test,User,-,,Recall,Recall2,8496,Bronze,100,4984,6025,1,1,,1
6107d8ee8bd9a035d04f6d98,se3e4f8n1t,"Mediated Recall_Prolific",1,191,2023-02-05T18:40:25+00:00,3.7839238643646,1,versionA_stim.csv,ReadVersion.csv,Read,Read1,SOAP,DRINK,Study2,M,67,71,Test,User,-,,Recall,Recall2,3581,,0,-1,-1,0,0,,1
6107d8ee8bd9a035d04f6d98,se3e4f8n1t,"Mediated Recall_Prolific",1,192,2023-02-05T18:40:26+00:00,1.6036460399628,1,versionA_stim.csv,ReadVersion.csv,Read,Read1,NURSE,LAWYER,Study2,M,66,96,Test,User,-,,Recall,Recall2,1402,,0,-1,-1,0,0,,1
6107d8ee8bd9a035d04f6d98,se3e4f8n1t,"Mediated Recall_Prolific",1,193,2023-02-05T18:40:27+00:00,1.2913839817047,1,versionA_stim.csv,ReadVersion.csv,Read,Read1,GRILL,THIGH,Study2,M,72,70,Test,User,-,,Recall,Recall2,1093,,0,-1,-1,0,0,,1
6107d8ee8bd9a035d04f6d98,se3e4f8n1t,"Mediated Recall_Prolific",1,194,2023-02-05T18:40:29+00:00,1.2095110416412,1,versionA_stim.csv,ReadVersion.csv,Read,Read1,OVEN,BASKET,Study2,M,71,102,Test,User,-,,Recall,Recall2,1002,,0,-1,-1,0,0,,1
6107d8ee8bd9a035d04f6d98,se3e4f8n1t,"Mediated Recall_Prolific",1,195,2023-02-05T18:40:38+00:00,9.4628109931946,1,versionA_stim.csv,ReadVersion.csv,Read,Read1,CHISEL,HAMMER,Study2,F,78,77,Test,User,-,,Recall,Recall2,9267,hammer,100,6118,6777,1,1,,1
6107d8ee8bd9a035d04f6d98,se3e4f8n1t,"Mediated Recall_Prolific",1,196,2023-02-05T18:40:40+00:00,1.5947239398956,1,versionA_stim.csv,ReadVersion.csv,Read,Read1,VALLEY,PEAK,Study2,M,73,75,Test,User,-,,Recall,Recall2,1393,,0,-1,-1,0,0,,1
6107d8ee8bd9a035d04f6d98,se3e4f8n1t,"Mediated Recall_Prolific",1,197,2023-02-05T18:40:41+00:00,1.2181680202484,1,versionA_stim.csv,ReadVersion.csv,Read,Read1,EYES,SMELL,Study2,M,65,79,Test,User,-,,Recall,Recall2,1008,,0,-1,-1,0,0,,1
6107d8ee8bd9a035d04f6d98,se3e4f8n1t,"Mediated Recall_Prolific",1,198,2023-02-05T18:40:45+00:00,4.2410759925842,1,versionA_stim.csv,ReadVersion.csv,Read,Read1,RAKE,SEED,Study2,M,69,105,Test,User,-,,Recall,Recall2,4039,,0,-1,-1,0,0,,1
6107d8ee8bd9a035d04f6d98,se3e4f8n1t,"Mediated Recall_Prolific",1,199,2023-02-05T18:40:47+00:00,1.3200271129608,1,versionA_stim.csv,ReadVersion.csv,Read,Read1,BLAZE,FIRE,Study2,F,81,68,Test,User,-,,Recall,Recall2,1114,,0,-1,-1,0,0,,1
6107d8ee8bd9a035d04f6d98,se3e4f8n1t,"Mediated Recall_Prolific",1,200,2023-02-05T18:40:48+00:00,1.4435098171234,1,versionA_stim.csv,ReadVersion.csv,Read,Read1,CHOP,CUT,Study2,F,77,83,Test,User,-,,Recall,Recall2,1236,,0,-1,-1,0,0,,1
6107d8ee8bd9a035d04f6d98,se3e4f8n1t,"Mediated Recall_Prolific",1,201,2023-02-05T18:40:50+00:00,1.7787551879883,1,versionA_stim.csv,ReadVersion.csv,Read,Read1,DEATH,BUSINESS,Study2,U,99,76,Test,User,-,,Recall,Recall2,1579,,0,-1,-1,0,0,,1
6107d8ee8bd9a035d04f6d98,se3e4f8n1t,"Mediated Recall_Prolific",1,202,2023-02-05T18:40:51+00:00,1.4763488769531,1,versionA_stim.csv,ReadVersion.csv,Read,Read1,BENCH,HORN,Study2,U,98,84,Test,User,-,,Recall,Recall2,1280,,0,-1,-1,0,0,,1
6107d8ee8bd9a035d04f6d98,se3e4f8n1t,"Mediated Recall_Prolific",1,203,2023-02-05T18:40:53+00:00,1.3614211082458,1,versionA_stim.csv,ReadVersion.csv,Read,Read1,BOTH,OUNCE,Study2,U,102,88,Test,User,-,,Recall,Recall2,1146,,0,-1,-1,0,0,,1
6107d8ee8bd9a035d04f6d98,se3e4f8n1t,"Mediated Recall_Prolific",1,204,2023-02-05T18:40:59+00:00,6.0875799655914,1,versionA_stim.csv,ReadVersion.csv,Read,Read1,HERD,COW,Study2,F,88,80,Test,User,-,,Recall,Recall2,5762,Cow,100,3440,3769,1,1,,1
6107d8ee8bd9a035d04f6d98,se3e4f8n1t,"Mediated Recall_Prolific",1,205,2023-02-05T18:41:01+00:00,1.9969770908356,1,versionA_stim.csv,ReadVersion.csv,Read,Read1,BRIDGE,WATER,Study2,F,90,64,Test,User,-,,Recall,Recall2,1804,,0,-1,-1,0,0,,1
6107d8ee8bd9a035d04f6d98,se3e4f8n1t,"Mediated Recall_Prolific",1,206,2023-02-05T18:41:04+00:00,3.2340037822723,1,versionA_stim.csv,ReadVersion.csv,Read,Read1,HORNET,STING,Study2,F,85,94,Test,User,-,,Recall,Recall2,3037,,0,-1,-1,0,0,,1
6107d8ee8bd9a035d04f6d98,se3e4f8n1t,"Mediated Recall_Prolific",1,207,2023-02-05T18:41:10+00:00,5.7136960029602,1,versionA_stim.csv,ReadVersion.csv,Read,Read1,TRAP,CAVE,Study2,M,70,69,Test,User,-,,Recall,Recall2,5510,,0,-1,-1,0,0,,1
6107d8ee8bd9a035d04f6d98,se3e4f8n1t,"Mediated Recall_Prolific",1,208,2023-02-05T18:41:12+00:00,2.2697591781616,1,versionA_stim.csv,ReadVersion.csv,Read,Read1,SUMMER,SNOW,Study2,M,61,62,Test,User,-,,Recall,Recall2,1939,,0,-1,-1,0,0,,1
6107d8ee8bd9a035d04f6d98,se3e4f8n1t,"Mediated Recall_Prolific",1,209,2023-02-05T18:41:13+00:00,1.2267608642578,1,versionA_stim.csv,ReadVersion.csv,Read,Read1,HEAVY,FEATHER,Study2,M,68,72,Test,User,-,,Recall,Recall2,1012,,0,-1,-1,0,0,,1
6107d8ee8bd9a035d04f6d98,se3e4f8n1t,"Mediated Recall_Prolific",1,210,2023-02-05T18:41:14+00:00,1.1352989673615,1,versionA_stim.csv,ReadVersion.csv,Read,Read1,SICK,HIDE,Study2,U,100,91,Test,User,-,,Recall,Recall2,940,,0,-1,-1,0,0,,1
6107d8ee8bd9a035d04f6d98,se3e4f8n1t,"Mediated Recall_Prolific",1,211,2023-02-05T18:41:17+00:00,2.4166791439056,1,versionA_stim.csv,ReadVersion.csv,Read,Read1,,,,,,0,Instruct,User,-,"You have completed this section. Please press Enter.",,Instruct7,2215,,,-1,-1,,,,1
6107d8ee8bd9a035d04f6d98,se3e4f8n1t,"Mediated Recall_Prolific",1,212,2023-02-05T18:41:19+00:00,2.6428229808807,1,versionA_stim.csv,ReadVersion.csv,Read,Read1,,,,,,0,Instruct,User,-,"The following screen will ask you a few questions abour your experience today. You must complete these questions to receive credit.",,Instruct8,2451,,,-1,-1,,,,1
