Username,ID,ExperimentName,Session,Trial,Date,TimeDif,"Condition Number","Stimuli File","Order File","Condition Description","Condition Notes",Stimuli*Cue,Stimuli*Answer,Stimuli*Shuffle,"Stimuli*Stimuli Notes",Stimuli*Value,Procedure*Item,"Procedure*Trial Type","Procedure*Max Time","Procedure*Min Time",Procedure*Text,"Procedure*Procedure Notes",Procedure*Shuffle,Response*RT,Response*Response,Response*Accuracy,Response*RTfirst,Response*RTlast,Response*strictAcc,Response*lenientAcc,Response*focus,Response*Focus
5e2631760e122288e0404af7,xxsv3cm274,"Mediated Recall_Prolific",1,1,2023-02-05T18:16:48+00:00,6.0527291297913,3,versionB_stim.csv,ReadVersion.csv,Read,Read2,,,,,,0,Instruct,-,5,"In this section, you will be presented with a series of word pairs. Please study each word pair! Your memory will be tested!",Initial_Instruct,Instruct1,5538,,,-1,-1,,,,1
5e2631760e122288e0404af7,xxsv3cm274,"Mediated Recall_Prolific",1,2,2023-02-05T18:16:50+00:00,1.7822320461273,3,versionB_stim.csv,ReadVersion.csv,Read,Read2,,,,,,0,Instruct,User,-,"You will now begin. Press Enter when you are ready to begin.",,Instruct16,1470,,,-1,-1,,,,1
5e2631760e122288e0404af7,xxsv3cm274,"Mediated Recall_Prolific",1,3,2023-02-05T18:16:52+00:00,2.3680138587952,3,versionB_stim.csv,ReadVersion.csv,Read,Read2,SPRING,MARCH,BUFFER3,Buffer,4,6,Study,User,-,,Study/JOL,BUFFER,2056,,,-1,-1,,,,1
5e2631760e122288e0404af7,xxsv3cm274,"Mediated Recall_Prolific",1,4,2023-02-05T18:16:54+00:00,1.3081381320953,3,versionB_stim.csv,ReadVersion.csv,Read,Read2,MONTH,YEAR,BUFFER3,Buffer,2,3,Study,User,-,,Study/JOL,BUFFER,986,,,-1,-1,,,,1
5e2631760e122288e0404af7,xxsv3cm274,"Mediated Recall_Prolific",1,5,2023-02-05T18:16:55+00:00,1.0703558921814,3,versionB_stim.csv,ReadVersion.csv,Read,Read2,DAYS,WEAKS,BUFFER3,Buffer,1,5,Study,User,-,,Study/JOL,BUFFER,743,,,-1,-1,,,,1
5e2631760e122288e0404af7,xxsv3cm274,"Mediated Recall_Prolific",1,6,2023-02-05T18:16:56+00:00,1.4134619235992,3,versionB_stim.csv,ReadVersion.csv,Read,Read2,OCTOBER,SPOOKY,BUFFER3,Buffer,5,4,Study,User,-,,Study/JOL,BUFFER,1099,,,-1,-1,,,,1
5e2631760e122288e0404af7,xxsv3cm274,"Mediated Recall_Prolific",1,7,2023-02-05T18:16:57+00:00,1.2420020103455,3,versionB_stim.csv,ReadVersion.csv,Read,Read2,TOOL,SHED,BUFFER3,Buffer,3,2,Study,User,-,,Study/JOL,BUFFER,932,,,-1,-1,,,,1
5e2631760e122288e0404af7,xxsv3cm274,"Mediated Recall_Prolific",1,8,2023-02-05T18:16:59+00:00,1.3879370689392,3,versionB_stim.csv,ReadVersion.csv,Read,Read2,WINDOW,KNOB,Study2,M,19,42,Study,User,-,,Study/JOL,"Study Phase",1087,,,-1,-1,,,,1
5e2631760e122288e0404af7,xxsv3cm274,"Mediated Recall_Prolific",1,9,2023-02-05T18:17:00+00:00,1.513090133667,3,versionB_stim.csv,ReadVersion.csv,Read,Read2,INCENSE,SMELL,Study2,F,28,12,Study,User,-,,Study/JOL,"Study Phase",1208,,,-1,-1,,,,1
5e2631760e122288e0404af7,xxsv3cm274,"Mediated Recall_Prolific",1,10,2023-02-05T18:17:02+00:00,2.0433859825134,3,versionB_stim.csv,ReadVersion.csv,Read,Read2,TRAP,CAVE,Study2,M,15,18,Study,User,-,,Study/JOL,"Study Phase",1719,,,-1,-1,,,,1
5e2631760e122288e0404af7,xxsv3cm274,"Mediated Recall_Prolific",1,11,2023-02-05T18:17:04+00:00,1.2521028518677,3,versionB_stim.csv,ReadVersion.csv,Read,Read2,SICK,HIDE,Study2,U,45,27,Study,User,-,,Study/JOL,"Study Phase",937,,,-1,-1,,,,1
5e2631760e122288e0404af7,xxsv3cm274,"Mediated Recall_Prolific",1,12,2023-02-05T18:17:05+00:00,1.2234799861908,3,versionB_stim.csv,ReadVersion.csv,Read,Read2,CACTUS,PLANT,Study2,F,21,9,Study,User,-,,Study/JOL,"Study Phase",926,,,-1,-1,,,,1
5e2631760e122288e0404af7,xxsv3cm274,"Mediated Recall_Prolific",1,13,2023-02-05T18:17:06+00:00,1.1800889968872,3,versionB_stim.csv,ReadVersion.csv,Read,Read2,SUGAR,RIDDLE,Study2,U,40,50,Study,User,-,,Study/JOL,"Study Phase",856,,,-1,-1,,,,1
5e2631760e122288e0404af7,xxsv3cm274,"Mediated Recall_Prolific",1,14,2023-02-05T18:17:07+00:00,1.2801630496979,3,versionB_stim.csv,ReadVersion.csv,Read,Read2,OVEN,BASKET,Study2,M,16,41,Study,User,-,,Study/JOL,"Study Phase",999,,,-1,-1,,,,1
5e2631760e122288e0404af7,xxsv3cm274,"Mediated Recall_Prolific",1,15,2023-02-05T18:17:08+00:00,1.1621360778809,3,versionB_stim.csv,ReadVersion.csv,Read,Read2,STRONG,ACCIDENT,Study2,U,39,20,Study,User,-,,Study/JOL,"Study Phase",858,,,-1,-1,,,,1
5e2631760e122288e0404af7,xxsv3cm274,"Mediated Recall_Prolific",1,16,2023-02-05T18:17:10+00:00,1.4401500225067,3,versionB_stim.csv,ReadVersion.csv,Read,Read2,PANTS,COLLAR,Study2,M,8,45,Study,User,-,,Study/JOL,"Study Phase",1147,,,-1,-1,,,,1
5e2631760e122288e0404af7,xxsv3cm274,"Mediated Recall_Prolific",1,17,2023-02-05T18:17:12+00:00,1.6915969848633,3,versionB_stim.csv,ReadVersion.csv,Read,Read2,REALITY,ISLAND,Study2,M,9,48,Study,User,-,,Study/JOL,"Study Phase",1372,,,-1,-1,,,,1
5e2631760e122288e0404af7,xxsv3cm274,"Mediated Recall_Prolific",1,18,2023-02-05T18:17:13+00:00,1.3601200580597,3,versionB_stim.csv,ReadVersion.csv,Read,Read2,DIETARY,SACK,Study2,U,42,44,Study,User,-,,Study/JOL,"Study Phase",1027,,,-1,-1,,,,1
5e2631760e122288e0404af7,xxsv3cm274,"Mediated Recall_Prolific",1,19,2023-02-05T18:17:14+00:00,1.1282207965851,3,versionB_stim.csv,ReadVersion.csv,Read,Read2,HAPPY,CAR,Study2,U,37,10,Study,User,-,,Study/JOL,"Study Phase",814,,,-1,-1,,,,1
5e2631760e122288e0404af7,xxsv3cm274,"Mediated Recall_Prolific",1,20,2023-02-05T18:17:15+00:00,1.2598140239716,3,versionB_stim.csv,ReadVersion.csv,Read,Read2,KING,VASE,Study2,U,36,29,Study,User,-,,Study/JOL,"Study Phase",951,,,-1,-1,,,,1
5e2631760e122288e0404af7,xxsv3cm274,"Mediated Recall_Prolific",1,21,2023-02-05T18:17:17+00:00,1.2864680290222,3,versionB_stim.csv,ReadVersion.csv,Read,Read2,CHISEL,HAMMER,Study2,F,23,40,Study,User,-,,Study/JOL,"Study Phase",958,,,-1,-1,,,,1
5e2631760e122288e0404af7,xxsv3cm274,"Mediated Recall_Prolific",1,22,2023-02-05T18:17:18+00:00,1.0569970607758,3,versionB_stim.csv,ReadVersion.csv,Read,Read2,DEATH,BUSINESS,Study2,U,44,19,Study,User,-,,Study/JOL,"Study Phase",748,,,-1,-1,,,,1
5e2631760e122288e0404af7,xxsv3cm274,"Mediated Recall_Prolific",1,23,2023-02-05T18:17:19+00:00,0.83829188346863,3,versionB_stim.csv,ReadVersion.csv,Read,Read2,BLAZE,FIRE,Study2,F,26,32,Study,User,-,,Study/JOL,"Study Phase",477,,,-1,-1,,,,1
5e2631760e122288e0404af7,xxsv3cm274,"Mediated Recall_Prolific",1,24,2023-02-05T18:17:20+00:00,0.95791411399841,3,versionB_stim.csv,ReadVersion.csv,Read,Read2,SOAP,DRINK,Study2,M,12,47,Study,User,-,,Study/JOL,"Study Phase",645,,,-1,-1,,,,1
5e2631760e122288e0404af7,xxsv3cm274,"Mediated Recall_Prolific",1,25,2023-02-05T18:17:21+00:00,0.99608492851257,3,versionB_stim.csv,ReadVersion.csv,Read,Read2,RAZOR,MUSCLE,Study2,M,20,13,Study,User,-,,Study/JOL,"Study Phase",685,,,-1,-1,,,,1
5e2631760e122288e0404af7,xxsv3cm274,"Mediated Recall_Prolific",1,26,2023-02-05T18:17:22+00:00,1.007915019989,3,versionB_stim.csv,ReadVersion.csv,Read,Read2,DOCUMENT,PAPER,Study2,F,27,23,Study,User,-,,Study/JOL,"Study Phase",681,,,-1,-1,,,,1
5e2631760e122288e0404af7,xxsv3cm274,"Mediated Recall_Prolific",1,27,2023-02-05T18:17:22+00:00,0.91220593452454,3,versionB_stim.csv,ReadVersion.csv,Read,Read2,LEASE,TOIL,Study2,U,46,28,Study,User,-,,Study/JOL,"Study Phase",585,,,-1,-1,,,,1
5e2631760e122288e0404af7,xxsv3cm274,"Mediated Recall_Prolific",1,28,2023-02-05T18:17:24+00:00,1.1120932102203,3,versionB_stim.csv,ReadVersion.csv,Read,Read2,LEAGUE,BASEBALL,Study2,F,29,24,Study,User,-,,Study/JOL,"Study Phase",784,,,-1,-1,,,,1
5e2631760e122288e0404af7,xxsv3cm274,"Mediated Recall_Prolific",1,29,2023-02-05T18:17:25+00:00,1.5599818229675,3,versionB_stim.csv,ReadVersion.csv,Read,Read2,CASH,LEG,Study2,U,50,8,Study,User,-,,Study/JOL,"Study Phase",1246,,,-1,-1,,,,1
5e2631760e122288e0404af7,xxsv3cm274,"Mediated Recall_Prolific",1,30,2023-02-05T18:17:26+00:00,1.1136980056763,3,versionB_stim.csv,ReadVersion.csv,Read,Read2,SUMMER,SNOW,Study2,M,6,11,Study,User,-,,Study/JOL,"Study Phase",788,,,-1,-1,,,,1
5e2631760e122288e0404af7,xxsv3cm274,"Mediated Recall_Prolific",1,31,2023-02-05T18:17:29+00:00,3.2683391571045,3,versionB_stim.csv,ReadVersion.csv,Read,Read2,BOTH,OUNCE,Study2,U,47,25,Study,User,-,,Study/JOL,"Study Phase",2937,,,-1,-1,,,,1
5e2631760e122288e0404af7,xxsv3cm274,"Mediated Recall_Prolific",1,32,2023-02-05T18:17:32+00:00,2.2636108398438,3,versionB_stim.csv,ReadVersion.csv,Read,Read2,SCHOOL,STOP,Study2,M,7,7,Study,User,-,,Study/JOL,"Study Phase",1954,,,-1,-1,,,,1
5e2631760e122288e0404af7,xxsv3cm274,"Mediated Recall_Prolific",1,33,2023-02-05T18:17:33+00:00,0.90831613540649,3,versionB_stim.csv,ReadVersion.csv,Read,Read2,BENCH,HORN,Study2,U,43,49,Study,User,-,,Study/JOL,"Study Phase",598,,,-1,-1,,,,1
5e2631760e122288e0404af7,xxsv3cm274,"Mediated Recall_Prolific",1,34,2023-02-05T18:17:34+00:00,1.1547908782959,3,versionB_stim.csv,ReadVersion.csv,Read,Read2,PUSH,CLUTTER,Study2,U,41,17,Study,User,-,,Study/JOL,"Study Phase",828,,,-1,-1,,,,1
5e2631760e122288e0404af7,xxsv3cm274,"Mediated Recall_Prolific",1,35,2023-02-05T18:17:35+00:00,0.94108009338379,3,versionB_stim.csv,ReadVersion.csv,Read,Read2,NURSE,LAWYER,Study2,M,11,39,Study,User,-,,Study/JOL,"Study Phase",615,,,-1,-1,,,,1
5e2631760e122288e0404af7,xxsv3cm274,"Mediated Recall_Prolific",1,36,2023-02-05T18:17:36+00:00,1.2538180351257,3,versionB_stim.csv,ReadVersion.csv,Read,Read2,WASP,BUG,Study2,F,34,21,Study,User,-,,Study/JOL,"Study Phase",936,,,-1,-1,,,,1
5e2631760e122288e0404af7,xxsv3cm274,"Mediated Recall_Prolific",1,37,2023-02-05T18:17:37+00:00,1.3640220165253,3,versionB_stim.csv,ReadVersion.csv,Read,Read2,HEAVY,FEATHER,Study2,M,13,14,Study,User,-,,Study/JOL,"Study Phase",1059,,,-1,-1,,,,1
5e2631760e122288e0404af7,xxsv3cm274,"Mediated Recall_Prolific",1,38,2023-02-05T18:17:38+00:00,0.91295695304871,3,versionB_stim.csv,ReadVersion.csv,Read,Read2,CHERRY,RED,Study2,F,25,33,Study,User,-,,Study/JOL,"Study Phase",590,,,-1,-1,,,,1
5e2631760e122288e0404af7,xxsv3cm274,"Mediated Recall_Prolific",1,39,2023-02-05T18:17:40+00:00,1.5610179901123,3,versionB_stim.csv,ReadVersion.csv,Read,Read2,HERD,COW,Study2,F,33,22,Study,User,-,,Study/JOL,"Study Phase",1237,,,-1,-1,,,,1
5e2631760e122288e0404af7,xxsv3cm274,"Mediated Recall_Prolific",1,40,2023-02-05T18:17:41+00:00,1.3800449371338,3,versionB_stim.csv,ReadVersion.csv,Read,Read2,VALLEY,PEAK,Study2,M,18,46,Study,User,-,,Study/JOL,"Study Phase",1069,,,-1,-1,,,,1
5e2631760e122288e0404af7,xxsv3cm274,"Mediated Recall_Prolific",1,41,2023-02-05T18:17:43+00:00,1.438884973526,3,versionB_stim.csv,ReadVersion.csv,Read,Read2,CHILL,COLD,Study2,F,32,26,Study,User,-,,Study/JOL,"Study Phase",1129,,,-1,-1,,,,1
5e2631760e122288e0404af7,xxsv3cm274,"Mediated Recall_Prolific",1,42,2023-02-05T18:17:44+00:00,1.253093957901,3,versionB_stim.csv,ReadVersion.csv,Read,Read2,HORNET,STING,Study2,F,30,43,Study,User,-,,Study/JOL,"Study Phase",940,,,-1,-1,,,,1
5e2631760e122288e0404af7,xxsv3cm274,"Mediated Recall_Prolific",1,43,2023-02-05T18:17:45+00:00,0.86417698860168,3,versionB_stim.csv,ReadVersion.csv,Read,Read2,EYES,SMELL,Study2,M,10,51,Study,User,-,,Study/JOL,"Study Phase",566,,,-1,-1,,,,1
5e2631760e122288e0404af7,xxsv3cm274,"Mediated Recall_Prolific",1,44,2023-02-05T18:17:47+00:00,2.0298941135406,3,versionB_stim.csv,ReadVersion.csv,Read,Read2,GRILL,THIGH,Study2,M,17,15,Study,User,-,,Study/JOL,"Study Phase",1717,,,-1,-1,,,,1
5e2631760e122288e0404af7,xxsv3cm274,"Mediated Recall_Prolific",1,45,2023-02-05T18:17:48+00:00,0.94186091423035,3,versionB_stim.csv,ReadVersion.csv,Read,Read2,ARTERY,BRONZE,Study2,U,48,37,Study,User,-,,Study/JOL,"Study Phase",630,,,-1,-1,,,,1
5e2631760e122288e0404af7,xxsv3cm274,"Mediated Recall_Prolific",1,46,2023-02-05T18:17:49+00:00,1.2379240989685,3,versionB_stim.csv,ReadVersion.csv,Read,Read2,FEUD,FIGHT,Study2,F,31,34,Study,User,-,,Study/JOL,"Study Phase",922,,,-1,-1,,,,1
5e2631760e122288e0404af7,xxsv3cm274,"Mediated Recall_Prolific",1,47,2023-02-05T18:17:50+00:00,1.121237039566,3,versionB_stim.csv,ReadVersion.csv,Read,Read2,CHOP,CUT,Study2,F,22,31,Study,User,-,,Study/JOL,"Study Phase",798,,,-1,-1,,,,1
5e2631760e122288e0404af7,xxsv3cm274,"Mediated Recall_Prolific",1,48,2023-02-05T18:17:51+00:00,1.2529590129852,3,versionB_stim.csv,ReadVersion.csv,Read,Read2,ART,WOLF,Study2,U,38,36,Study,User,-,,Study/JOL,"Study Phase",951,,,-1,-1,,,,1
5e2631760e122288e0404af7,xxsv3cm274,"Mediated Recall_Prolific",1,49,2023-02-05T18:17:53+00:00,1.1984078884125,3,versionB_stim.csv,ReadVersion.csv,Read,Read2,BRIDGE,WATER,Study2,F,35,30,Study,User,-,,Study/JOL,"Study Phase",891,,,-1,-1,,,,1
5e2631760e122288e0404af7,xxsv3cm274,"Mediated Recall_Prolific",1,50,2023-02-05T18:17:54+00:00,1.12184715271,3,versionB_stim.csv,ReadVersion.csv,Read,Read2,RAKE,SEED,Study2,M,14,35,Study,User,-,,Study/JOL,"Study Phase",843,,,-1,-1,,,,1
5e2631760e122288e0404af7,xxsv3cm274,"Mediated Recall_Prolific",1,51,2023-02-05T18:17:55+00:00,0.94365787506104,3,versionB_stim.csv,ReadVersion.csv,Read,Read2,ATTIRE,CLOTHES,Study2,F,24,38,Study,User,-,,Study/JOL,"Study Phase",657,,,-1,-1,,,,1
5e2631760e122288e0404af7,xxsv3cm274,"Mediated Recall_Prolific",1,52,2023-02-05T18:17:56+00:00,1.2631471157074,3,versionB_stim.csv,ReadVersion.csv,Read,Read2,MIRROR,CHILDREN,Study2,U,49,16,Study,User,-,,Study/JOL,"Study Phase",961,,,-1,-1,,,,1
5e2631760e122288e0404af7,xxsv3cm274,"Mediated Recall_Prolific",1,53,2023-02-05T18:17:57+00:00,1.0096769332886,3,versionB_stim.csv,ReadVersion.csv,Read,Read2,ICE,FROZEN,BUFFER4,Buffer,54,53,Study,User,-,,Study/JOL,BUFFER2,700,,,-1,-1,,,,1
5e2631760e122288e0404af7,xxsv3cm274,"Mediated Recall_Prolific",1,54,2023-02-05T18:17:58+00:00,0.96800684928894,3,versionB_stim.csv,ReadVersion.csv,Read,Read2,SCARE,FRIGHT,BUFFER1,Buffer,59,59,Study,User,-,,Study/JOL,BUFFER2,651,,,-1,-1,,,,1
5e2631760e122288e0404af7,xxsv3cm274,"Mediated Recall_Prolific",1,55,2023-02-05T18:17:59+00:00,0.99044799804688,3,versionB_stim.csv,ReadVersion.csv,Read,Read2,PEANUT,BUTTER,BUFFER1,Buffer,58,61,Study,User,-,,Study/JOL,BUFFER2,657,,,-1,-1,,,,1
5e2631760e122288e0404af7,xxsv3cm274,"Mediated Recall_Prolific",1,56,2023-02-05T18:18:00+00:00,0.98199415206909,3,versionB_stim.csv,ReadVersion.csv,Read,Read2,CAMP,ADVENTURE,BUFFER4,Buffer,55,56,Study,User,-,,Study/JOL,BUFFER2,659,,,-1,-1,,,,1
5e2631760e122288e0404af7,xxsv3cm274,"Mediated Recall_Prolific",1,57,2023-02-05T18:18:01+00:00,1.0899260044098,3,versionB_stim.csv,ReadVersion.csv,Read,Read2,NOODLE,STRING,BUFFER4,Buffer,52,55,Study,User,-,,Study/JOL,BUFFER2,740,,,-1,-1,,,,1
5e2631760e122288e0404af7,xxsv3cm274,"Mediated Recall_Prolific",1,58,2023-02-05T18:18:03+00:00,2.1765449047089,3,versionB_stim.csv,ReadVersion.csv,Read,Read2,,,,,,0,Instruct,User,-,"You have completed this section. Please press Enter.",Filler_Instruction,Instruct2,1852,,,-1,-1,,,,1
5e2631760e122288e0404af7,xxsv3cm274,"Mediated Recall_Prolific",1,59,2023-02-05T18:20:04+00:00,120.51719498634,3,versionB_stim.csv,ReadVersion.csv,Read,Read2,,,,,,0,FreeRecall,120,120,"Please list the 50 US states in alphabetical order. The task will automatically advance to the next screen after two minutes.",,Filler1,120005,"Alabama Arkansas Colorado Georgia Kansas Louisiana New Hampshire North Carolina North Dakota Pennsylvania Rhode Isalnd ",0,7078,116961,0,0,,1
5e2631760e122288e0404af7,xxsv3cm274,"Mediated Recall_Prolific",1,60,2023-02-05T18:20:15+00:00,11.476929187775,3,versionB_stim.csv,ReadVersion.csv,Read,Read2,,,,,,0,Instruct,-,10,"You will now be presented with the first word from each of the previously studied item pairs. Please type the missing word. If you do not know the word, you may guess or press Enter to skip forward to the next pair.",,Instruct3,10781,,,-1,-1,,,,1
5e2631760e122288e0404af7,xxsv3cm274,"Mediated Recall_Prolific",1,61,2023-02-05T18:20:26+00:00,11.075309991837,3,versionB_stim.csv,ReadVersion.csv,Read,Read2,DEATH,BUSINESS,Study2,U,44,19,Test,User,-,,Recall,Recall1,10613,END,18.181818181818,6850,10383,0,0,,1
5e2631760e122288e0404af7,xxsv3cm274,"Mediated Recall_Prolific",1,62,2023-02-05T18:20:32+00:00,6.2979228496552,3,versionB_stim.csv,ReadVersion.csv,Read,Read2,SUMMER,SNOW,Study2,M,6,11,Test,User,-,,Recall,Recall1,5979,SPRING,40,2856,5586,0,0,,1
5e2631760e122288e0404af7,xxsv3cm274,"Mediated Recall_Prolific",1,63,2023-02-05T18:20:35+00:00,2.6367290019989,3,versionB_stim.csv,ReadVersion.csv,Read,Read2,BLAZE,FIRE,Study2,F,26,32,Test,User,-,,Recall,Recall1,2296,FIRE,100,1427,1851,1,1,,1
5e2631760e122288e0404af7,xxsv3cm274,"Mediated Recall_Prolific",1,64,2023-02-05T18:20:38+00:00,3.0641810894012,3,versionB_stim.csv,ReadVersion.csv,Read,Read2,HORNET,STING,Study2,F,30,43,Test,User,-,,Recall,Recall1,2751,WASP,22.222222222222,1558,2160,0,0,,1
5e2631760e122288e0404af7,xxsv3cm274,"Mediated Recall_Prolific",1,65,2023-02-05T18:20:41+00:00,2.9581508636475,3,versionB_stim.csv,ReadVersion.csv,Read,Read2,RAZOR,MUSCLE,Study2,M,20,13,Test,User,-,,Recall,Recall1,2629,LEG,44.444444444444,1600,2019,0,0,,1
5e2631760e122288e0404af7,xxsv3cm274,"Mediated Recall_Prolific",1,66,2023-02-05T18:20:44+00:00,3.1502521038055,3,versionB_stim.csv,ReadVersion.csv,Read,Read2,PANTS,COLLAR,Study2,M,8,45,Test,User,-,,Recall,Recall1,2811,,0,-1,-1,0,0,,1
5e2631760e122288e0404af7,xxsv3cm274,"Mediated Recall_Prolific",1,67,2023-02-05T18:20:49+00:00,4.5655419826508,3,versionB_stim.csv,ReadVersion.csv,Read,Read2,TRAP,CAVE,Study2,M,15,18,Test,User,-,,Recall,Recall1,4242,DOOR,0,3301,3815,0,0,,1
5e2631760e122288e0404af7,xxsv3cm274,"Mediated Recall_Prolific",1,68,2023-02-05T18:20:53+00:00,3.9758169651031,3,versionB_stim.csv,ReadVersion.csv,Read,Read2,EYES,SMELL,Study2,M,10,51,Test,User,-,,Recall,Recall1,3645,SMELL,100,1666,2277,1,1,,1
5e2631760e122288e0404af7,xxsv3cm274,"Mediated Recall_Prolific",1,69,2023-02-05T18:20:55+00:00,2.2669351100922,3,versionB_stim.csv,ReadVersion.csv,Read,Read2,ART,WOLF,Study2,U,38,36,Test,User,-,,Recall,Recall1,1936,,0,-1,-1,0,0,,1
5e2631760e122288e0404af7,xxsv3cm274,"Mediated Recall_Prolific",1,70,2023-02-05T18:20:58+00:00,3.3410069942474,3,versionB_stim.csv,ReadVersion.csv,Read,Read2,WINDOW,KNOB,Study2,M,19,42,Test,User,-,,Recall,Recall1,3017,KNOB,100,1823,2533,1,1,,1
5e2631760e122288e0404af7,xxsv3cm274,"Mediated Recall_Prolific",1,71,2023-02-05T18:21:00+00:00,1.7127079963684,3,versionB_stim.csv,ReadVersion.csv,Read,Read2,NURSE,LAWYER,Study2,M,11,39,Test,User,-,,Recall,Recall1,1387,,0,-1,-1,0,0,,1
5e2631760e122288e0404af7,xxsv3cm274,"Mediated Recall_Prolific",1,72,2023-02-05T18:21:05+00:00,4.8482768535614,3,versionB_stim.csv,ReadVersion.csv,Read,Read2,LEAGUE,BASEBALL,Study2,F,29,24,Test,User,-,,Recall,Recall1,4525,BASEBALL,100,1520,3785,1,1,,1
5e2631760e122288e0404af7,xxsv3cm274,"Mediated Recall_Prolific",1,73,2023-02-05T18:21:09+00:00,3.7431061267853,3,versionB_stim.csv,ReadVersion.csv,Read,Read2,ARTERY,BRONZE,Study2,U,48,37,Test,User,-,,Recall,Recall1,3410,HEART,18.181818181818,2347,2943,0,0,,1
5e2631760e122288e0404af7,xxsv3cm274,"Mediated Recall_Prolific",1,74,2023-02-05T18:21:11+00:00,2.3561298847198,3,versionB_stim.csv,ReadVersion.csv,Read,Read2,GRILL,THIGH,Study2,M,17,15,Test,User,-,,Recall,Recall1,2035,,0,-1,-1,0,0,,1
5e2631760e122288e0404af7,xxsv3cm274,"Mediated Recall_Prolific",1,75,2023-02-05T18:21:13+00:00,2.2359070777893,3,versionB_stim.csv,ReadVersion.csv,Read,Read2,HERD,COW,Study2,F,33,22,Test,User,-,,Recall,Recall1,1915,COW,100,1386,1722,1,1,,1
5e2631760e122288e0404af7,xxsv3cm274,"Mediated Recall_Prolific",1,76,2023-02-05T18:21:16+00:00,2.7201750278473,3,versionB_stim.csv,ReadVersion.csv,Read,Read2,CHISEL,HAMMER,Study2,F,23,40,Test,User,-,,Recall,Recall1,2401,HAMMER,100,1450,2075,1,1,,1
5e2631760e122288e0404af7,xxsv3cm274,"Mediated Recall_Prolific",1,77,2023-02-05T18:21:18+00:00,1.6884779930115,3,versionB_stim.csv,ReadVersion.csv,Read,Read2,LEASE,TOIL,Study2,U,46,28,Test,User,-,,Recall,Recall1,1386,,0,-1,-1,0,0,,1
5e2631760e122288e0404af7,xxsv3cm274,"Mediated Recall_Prolific",1,78,2023-02-05T18:21:20+00:00,2.3513820171356,3,versionB_stim.csv,ReadVersion.csv,Read,Read2,CHOP,CUT,Study2,F,22,31,Test,User,-,,Recall,Recall1,2025,CUT,100,1364,1632,1,1,,1
5e2631760e122288e0404af7,xxsv3cm274,"Mediated Recall_Prolific",1,79,2023-02-05T18:21:23+00:00,3.2679040431976,3,versionB_stim.csv,ReadVersion.csv,Read,Read2,CHILL,COLD,Study2,F,32,26,Test,User,-,,Recall,Recall1,2951,COLD,100,1355,2791,1,1,,1
5e2631760e122288e0404af7,xxsv3cm274,"Mediated Recall_Prolific",1,80,2023-02-05T18:21:25+00:00,1.5339298248291,3,versionB_stim.csv,ReadVersion.csv,Read,Read2,SCHOOL,STOP,Study2,M,7,7,Test,User,-,,Recall,Recall1,1211,,0,-1,-1,0,0,,1
5e2631760e122288e0404af7,xxsv3cm274,"Mediated Recall_Prolific",1,81,2023-02-05T18:21:28+00:00,3.2547760009766,3,versionB_stim.csv,ReadVersion.csv,Read,Read2,BENCH,HORN,Study2,U,43,49,Test,User,-,,Recall,Recall1,2930,SEAT,0,2250,2812,0,0,,1
5e2631760e122288e0404af7,xxsv3cm274,"Mediated Recall_Prolific",1,82,2023-02-05T18:21:30+00:00,1.4414901733398,3,versionB_stim.csv,ReadVersion.csv,Read,Read2,CHERRY,RED,Study2,F,25,33,Test,User,-,,Recall,Recall1,1120,,0,-1,-1,0,0,,1
5e2631760e122288e0404af7,xxsv3cm274,"Mediated Recall_Prolific",1,83,2023-02-05T18:21:31+00:00,1.7141017913818,3,versionB_stim.csv,ReadVersion.csv,Read,Read2,SICK,HIDE,Study2,U,45,27,Test,User,-,,Recall,Recall1,1387,,0,-1,-1,0,0,,1
5e2631760e122288e0404af7,xxsv3cm274,"Mediated Recall_Prolific",1,84,2023-02-05T18:21:35+00:00,3.5876002311707,3,versionB_stim.csv,ReadVersion.csv,Read,Read2,DIETARY,SACK,Study2,U,42,44,Test,User,-,,Recall,Recall1,3255,,0,-1,-1,0,0,,1
5e2631760e122288e0404af7,xxsv3cm274,"Mediated Recall_Prolific",1,85,2023-02-05T18:21:38+00:00,2.8892228603363,3,versionB_stim.csv,ReadVersion.csv,Read,Read2,FEUD,FIGHT,Study2,F,31,34,Test,User,-,,Recall,Recall1,2535,FIT,75,1960,2278,0,1,,1
5e2631760e122288e0404af7,xxsv3cm274,"Mediated Recall_Prolific",1,86,2023-02-05T18:21:42+00:00,4.353147983551,3,versionB_stim.csv,ReadVersion.csv,Read,Read2,ATTIRE,CLOTHES,Study2,F,24,38,Test,User,-,,Recall,Recall1,4025,CLOTHES,100,2904,3824,1,1,,1
5e2631760e122288e0404af7,xxsv3cm274,"Mediated Recall_Prolific",1,87,2023-02-05T18:21:45+00:00,2.5804929733276,3,versionB_stim.csv,ReadVersion.csv,Read,Read2,RAKE,SEED,Study2,M,14,35,Test,User,-,,Recall,Recall1,2257,,0,-1,-1,0,0,,1
5e2631760e122288e0404af7,xxsv3cm274,"Mediated Recall_Prolific",1,88,2023-02-05T18:21:47+00:00,2.7179760932922,3,versionB_stim.csv,ReadVersion.csv,Read,Read2,REALITY,ISLAND,Study2,M,9,48,Test,User,-,,Recall,Recall1,2397,,0,-1,-1,0,0,,1
5e2631760e122288e0404af7,xxsv3cm274,"Mediated Recall_Prolific",1,89,2023-02-05T18:21:51+00:00,3.3130919933319,3,versionB_stim.csv,ReadVersion.csv,Read,Read2,OVEN,BASKET,Study2,M,16,41,Test,User,-,,Recall,Recall1,2986,BAKE,80,2392,2859,0,1,,1
5e2631760e122288e0404af7,xxsv3cm274,"Mediated Recall_Prolific",1,90,2023-02-05T18:21:54+00:00,3.3881728649139,3,versionB_stim.csv,ReadVersion.csv,Read,Read2,CASH,LEG,Study2,U,50,8,Test,User,-,,Recall,Recall1,3064,MONEY,25,1922,2587,0,0,,1
5e2631760e122288e0404af7,xxsv3cm274,"Mediated Recall_Prolific",1,91,2023-02-05T18:21:59+00:00,4.5838630199432,3,versionB_stim.csv,ReadVersion.csv,Read,Read2,KING,VASE,Study2,U,36,29,Test,User,-,,Recall,Recall1,4264,CROWN,0,2097,3749,0,0,,1
5e2631760e122288e0404af7,xxsv3cm274,"Mediated Recall_Prolific",1,92,2023-02-05T18:22:03+00:00,3.8949611186981,3,versionB_stim.csv,ReadVersion.csv,Read,Read2,MIRROR,CHILDREN,Study2,U,49,16,Test,User,-,,Recall,Recall1,3582,CHILD,76.923076923077,2042,3370,0,1,,1
5e2631760e122288e0404af7,xxsv3cm274,"Mediated Recall_Prolific",1,93,2023-02-05T18:22:04+00:00,1.6335899829865,3,versionB_stim.csv,ReadVersion.csv,Read,Read2,VALLEY,PEAK,Study2,M,18,46,Test,User,-,,Recall,Recall1,1305,,0,-1,-1,0,0,,1
5e2631760e122288e0404af7,xxsv3cm274,"Mediated Recall_Prolific",1,94,2023-02-05T18:22:06+00:00,1.6371700763702,3,versionB_stim.csv,ReadVersion.csv,Read,Read2,STRONG,ACCIDENT,Study2,U,39,20,Test,User,-,,Recall,Recall1,1313,,0,-1,-1,0,0,,1
5e2631760e122288e0404af7,xxsv3cm274,"Mediated Recall_Prolific",1,95,2023-02-05T18:22:11+00:00,4.6528010368347,3,versionB_stim.csv,ReadVersion.csv,Read,Read2,WASP,BUG,Study2,F,34,21,Test,User,-,,Recall,Recall1,4305,STING,25,2192,4027,0,0,,1
5e2631760e122288e0404af7,xxsv3cm274,"Mediated Recall_Prolific",1,96,2023-02-05T18:22:14+00:00,3.7359609603882,3,versionB_stim.csv,ReadVersion.csv,Read,Read2,HAPPY,CAR,Study2,U,37,10,Test,User,-,,Recall,Recall1,3421,SAD,33.333333333333,1616,2961,0,0,,1
5e2631760e122288e0404af7,xxsv3cm274,"Mediated Recall_Prolific",1,97,2023-02-05T18:22:16+00:00,1.9620888233185,3,versionB_stim.csv,ReadVersion.csv,Read,Read2,BRIDGE,WATER,Study2,F,35,30,Test,User,-,,Recall,Recall1,1639,,0,-1,-1,0,0,,1
5e2631760e122288e0404af7,xxsv3cm274,"Mediated Recall_Prolific",1,98,2023-02-05T18:22:20+00:00,3.4562640190125,3,versionB_stim.csv,ReadVersion.csv,Read,Read2,HEAVY,FEATHER,Study2,M,13,14,Test,User,-,,Recall,Recall1,3136,FEATHER,100,2082,2868,1,1,,1
5e2631760e122288e0404af7,xxsv3cm274,"Mediated Recall_Prolific",1,99,2023-02-05T18:22:22+00:00,2.6258771419525,3,versionB_stim.csv,ReadVersion.csv,Read,Read2,PUSH,CLUTTER,Study2,U,41,17,Test,User,-,,Recall,Recall1,2298,PULL,18.181818181818,1327,2017,0,0,,1
5e2631760e122288e0404af7,xxsv3cm274,"Mediated Recall_Prolific",1,100,2023-02-05T18:22:26+00:00,3.5357398986816,3,versionB_stim.csv,ReadVersion.csv,Read,Read2,SOAP,DRINK,Study2,M,12,47,Test,User,-,,Recall,Recall1,3214,EYES,0,2540,2989,0,0,,1
5e2631760e122288e0404af7,xxsv3cm274,"Mediated Recall_Prolific",1,101,2023-02-05T18:22:28+00:00,1.785619020462,3,versionB_stim.csv,ReadVersion.csv,Read,Read2,BOTH,OUNCE,Study2,U,47,25,Test,User,-,,Recall,Recall1,1449,,0,-1,-1,0,0,,1
5e2631760e122288e0404af7,xxsv3cm274,"Mediated Recall_Prolific",1,102,2023-02-05T18:22:30+00:00,2.648423910141,3,versionB_stim.csv,ReadVersion.csv,Read,Read2,INCENSE,SMELL,Study2,F,28,12,Test,User,-,,Recall,Recall1,2324,SMELL,100,1319,1841,1,1,,1
5e2631760e122288e0404af7,xxsv3cm274,"Mediated Recall_Prolific",1,103,2023-02-05T18:22:35+00:00,4.3976001739502,3,versionB_stim.csv,ReadVersion.csv,Read,Read2,SUGAR,RIDDLE,Study2,U,40,50,Test,User,-,,Recall,Recall1,4081,SPICE,36.363636363636,2616,3829,0,0,,1
5e2631760e122288e0404af7,xxsv3cm274,"Mediated Recall_Prolific",1,104,2023-02-05T18:22:37+00:00,2.3724808692932,3,versionB_stim.csv,ReadVersion.csv,Read,Read2,DOCUMENT,PAPER,Study2,F,27,23,Test,User,-,,Recall,Recall1,2001,PAPER,100,1384,1910,1,1,,1
5e2631760e122288e0404af7,xxsv3cm274,"Mediated Recall_Prolific",1,105,2023-02-05T18:22:39+00:00,1.6726131439209,3,versionB_stim.csv,ReadVersion.csv,Read,Read2,CACTUS,PLANT,Study2,F,21,9,Test,User,-,,Recall,Recall1,1338,,0,-1,-1,0,0,,1
5e2631760e122288e0404af7,xxsv3cm274,"Mediated Recall_Prolific",1,106,2023-02-05T18:22:50+00:00,11.367671966553,3,versionB_stim.csv,ReadVersion.csv,Read,Read2,,,,,,0,Instruct,-,10,"You will now be presented with a new set of word pairs. Please study each pair. Remember that your memory will be tested! When finished, press Enter to move to the next pair.",Initial_Instruct,Instruct4,10885,,,-1,-1,,,,1
5e2631760e122288e0404af7,xxsv3cm274,"Mediated Recall_Prolific",1,107,2023-02-05T18:22:53+00:00,2.4201090335846,3,versionB_stim.csv,ReadVersion.csv,Read,Read2,,,,,,0,Instruct,User,-,"Press Enter when you are readty to begin",,Instruct11,2096,,,-1,-1,,,,1
5e2631760e122288e0404af7,xxsv3cm274,"Mediated Recall_Prolific",1,108,2023-02-05T18:22:56+00:00,3.2138040065765,3,versionB_stim.csv,ReadVersion.csv,Read,Read2,SHRIMP,FISH,BUFFER4,Buffer,53,54,Study,User,-,,Study/JOL,BUFFER2,2902,,,-1,-1,,,,1
5e2631760e122288e0404af7,xxsv3cm274,"Mediated Recall_Prolific",1,109,2023-02-05T18:22:58+00:00,2.536041021347,3,versionB_stim.csv,ReadVersion.csv,Read,Read2,SHERRIF,POLICE,BUFFER2,Buffer,107,107,Study,User,-,,Study/JOL,BUFFER2,2231,,,-1,-1,,,,1
5e2631760e122288e0404af7,xxsv3cm274,"Mediated Recall_Prolific",1,110,2023-02-05T18:22:59+00:00,1.2166349887848,3,versionB_stim.csv,ReadVersion.csv,Read,Read2,TREES,GREEN,BUFFER1,Buffer,56,57,Study,User,-,,Study/JOL,BUFFER2,896,,,-1,-1,,,,1
5e2631760e122288e0404af7,xxsv3cm274,"Mediated Recall_Prolific",1,111,2023-02-05T18:23:01+00:00,1.0918660163879,3,versionB_stim.csv,ReadVersion.csv,Read,Read2,PITCHER,CATCHER,BUFFER1,Buffer,57,58,Study,User,-,,Study/JOL,BUFFER2,811,,,-1,-1,,,,1
5e2631760e122288e0404af7,xxsv3cm274,"Mediated Recall_Prolific",1,112,2023-02-05T18:23:02+00:00,1.0498847961426,3,versionB_stim.csv,ReadVersion.csv,Read,Read2,MOON,SPACE,BUFFER2,Buffer,109,108,Study,User,-,,Study/JOL,BUFFER2,747,,,-1,-1,,,,1
5e2631760e122288e0404af7,xxsv3cm274,"Mediated Recall_Prolific",1,113,2023-02-05T18:23:03+00:00,1.1499199867249,3,versionB_stim.csv,ReadVersion.csv,Read,Read2,SIP,DRINK,Study1,F,87,80,Study,User,-,,Study/JOL,"Study Phase2",829,,,-1,-1,,,,1
5e2631760e122288e0404af7,xxsv3cm274,"Mediated Recall_Prolific",1,114,2023-02-05T18:23:04+00:00,1.3057930469513,3,versionB_stim.csv,ReadVersion.csv,Read,Read2,MIRROR,MAROON,Study1,U,91,74,Study,User,-,,Study/JOL,"Study Phase2",984,,,-1,-1,,,,1
5e2631760e122288e0404af7,xxsv3cm274,"Mediated Recall_Prolific",1,115,2023-02-05T18:23:05+00:00,1.2618291378021,3,versionB_stim.csv,ReadVersion.csv,Read,Read2,MEAT,KEYS,Study1,U,96,77,Study,User,-,,Study/JOL,"Study Phase2",950,,,-1,-1,,,,1
5e2631760e122288e0404af7,xxsv3cm274,"Mediated Recall_Prolific",1,116,2023-02-05T18:23:06+00:00,0.99232888221741,3,versionB_stim.csv,ReadVersion.csv,Read,Read2,BAT,BOUNCE,Study1,M,67,67,Study,User,-,,Study/JOL,"Study Phase2",697,,,-1,-1,,,,1
5e2631760e122288e0404af7,xxsv3cm274,"Mediated Recall_Prolific",1,117,2023-02-05T18:23:08+00:00,1.3302209377289,3,versionB_stim.csv,ReadVersion.csv,Read,Read2,CRACKLE,ELECTION,Study1,U,94,64,Study,User,-,,Study/JOL,"Study Phase2",1026,,,-1,-1,,,,1
5e2631760e122288e0404af7,xxsv3cm274,"Mediated Recall_Prolific",1,118,2023-02-05T18:23:09+00:00,1.7994530200958,3,versionB_stim.csv,ReadVersion.csv,Read,Read2,FUZZY,BANG,Study1,U,105,83,Study,User,-,,Study/JOL,"Study Phase2",1464,,,-1,-1,,,,1
5e2631760e122288e0404af7,xxsv3cm274,"Mediated Recall_Prolific",1,119,2023-02-05T18:23:11+00:00,1.7651510238647,3,versionB_stim.csv,ReadVersion.csv,Read,Read2,TEMPERATURE,MORNING,Study1,U,103,96,Study,User,-,,Study/JOL,"Study Phase2",1451,,,-1,-1,,,,1
5e2631760e122288e0404af7,xxsv3cm274,"Mediated Recall_Prolific",1,120,2023-02-05T18:23:14+00:00,2.3771190643311,3,versionB_stim.csv,ReadVersion.csv,Read,Read2,BIRTHDAY,PIE,Study1,M,64,92,Study,User,-,,Study/JOL,"Study Phase2",2077,,,-1,-1,,,,1
5e2631760e122288e0404af7,xxsv3cm274,"Mediated Recall_Prolific",1,121,2023-02-05T18:23:15+00:00,1.0876569747925,3,versionB_stim.csv,ReadVersion.csv,Read,Read2,TOOTH,HAIR,Study1,M,74,70,Study,User,-,,Study/JOL,"Study Phase2",770,,,-1,-1,,,,1
5e2631760e122288e0404af7,xxsv3cm274,"Mediated Recall_Prolific",1,122,2023-02-05T18:23:16+00:00,1.4041049480438,3,versionB_stim.csv,ReadVersion.csv,Read,Read2,STRETCH,CLOTH,Study1,U,92,71,Study,User,-,,Study/JOL,"Study Phase2",1087,,,-1,-1,,,,1
5e2631760e122288e0404af7,xxsv3cm274,"Mediated Recall_Prolific",1,123,2023-02-05T18:23:17+00:00,1.0618960857391,3,versionB_stim.csv,ReadVersion.csv,Read,Read2,AFFECTION,LOVE,Study1,F,86,78,Study,User,-,,Study/JOL,"Study Phase2",741,,,-1,-1,,,,1
5e2631760e122288e0404af7,xxsv3cm274,"Mediated Recall_Prolific",1,124,2023-02-05T18:23:18+00:00,1.0585689544678,3,versionB_stim.csv,ReadVersion.csv,Read,Read2,LION,STRIPES,Study1,M,61,72,Study,User,-,,Study/JOL,"Study Phase2",730,,,-1,-1,,,,1
5e2631760e122288e0404af7,xxsv3cm274,"Mediated Recall_Prolific",1,125,2023-02-05T18:23:21+00:00,2.339574098587,3,versionB_stim.csv,ReadVersion.csv,Read,Read2,MAZE,PHONE,Study1,U,97,79,Study,User,-,,Study/JOL,"Study Phase2",2015,,,-1,-1,,,,1
5e2631760e122288e0404af7,xxsv3cm274,"Mediated Recall_Prolific",1,126,2023-02-05T18:23:22+00:00,1.2497849464417,3,versionB_stim.csv,ReadVersion.csv,Read,Read2,SWAN,BIRD,Study1,F,81,97,Study,User,-,,Study/JOL,"Study Phase2",938,,,-1,-1,,,,1
5e2631760e122288e0404af7,xxsv3cm274,"Mediated Recall_Prolific",1,127,2023-02-05T18:23:23+00:00,1.3199870586395,3,versionB_stim.csv,ReadVersion.csv,Read,Read2,GIVE,STEAK,Study1,U,93,89,Study,User,-,,Study/JOL,"Study Phase2",987,,,-1,-1,,,,1
5e2631760e122288e0404af7,xxsv3cm274,"Mediated Recall_Prolific",1,128,2023-02-05T18:23:24+00:00,1.1140518188477,3,versionB_stim.csv,ReadVersion.csv,Read,Read2,ORCHID,FLOWER,Study1,F,89,81,Study,User,-,,Study/JOL,"Study Phase2",807,,,-1,-1,,,,1
5e2631760e122288e0404af7,xxsv3cm274,"Mediated Recall_Prolific",1,129,2023-02-05T18:23:26+00:00,1.8099582195282,3,versionB_stim.csv,ReadVersion.csv,Read,Read2,WAGE,MONEY,Study1,F,77,86,Study,User,-,,Study/JOL,"Study Phase2",1496,,,-1,-1,,,,1
5e2631760e122288e0404af7,xxsv3cm274,"Mediated Recall_Prolific",1,130,2023-02-05T18:23:27+00:00,1.4320318698883,3,versionB_stim.csv,ReadVersion.csv,Read,Read2,CREDIT,CARD,Study1,F,88,93,Study,User,-,,Study/JOL,"Study Phase2",1118,,,-1,-1,,,,1
5e2631760e122288e0404af7,xxsv3cm274,"Mediated Recall_Prolific",1,131,2023-02-05T18:23:29+00:00,1.1279199123383,3,versionB_stim.csv,ReadVersion.csv,Read,Read2,NAP,SLEEP,Study1,F,84,73,Study,User,-,,Study/JOL,"Study Phase2",828,,,-1,-1,,,,1
5e2631760e122288e0404af7,xxsv3cm274,"Mediated Recall_Prolific",1,132,2023-02-05T18:23:30+00:00,1.1079361438751,3,versionB_stim.csv,ReadVersion.csv,Read,Read2,BEACH,BOX,Study1,M,62,62,Study,User,-,,Study/JOL,"Study Phase2",795,,,-1,-1,,,,1
5e2631760e122288e0404af7,xxsv3cm274,"Mediated Recall_Prolific",1,133,2023-02-05T18:23:31+00:00,1.1660680770874,3,versionB_stim.csv,ReadVersion.csv,Read,Read2,SOON,BELT,Study1,U,101,106,Study,User,-,,Study/JOL,"Study Phase2",847,,,-1,-1,,,,1
5e2631760e122288e0404af7,xxsv3cm274,"Mediated Recall_Prolific",1,134,2023-02-05T18:23:32+00:00,1.1620819568634,3,versionB_stim.csv,ReadVersion.csv,Read,Read2,WEDDING,FINGER,Study1,M,72,84,Study,User,-,,Study/JOL,"Study Phase2",862,,,-1,-1,,,,1
5e2631760e122288e0404af7,xxsv3cm274,"Mediated Recall_Prolific",1,135,2023-02-05T18:23:33+00:00,1.0280230045319,3,versionB_stim.csv,ReadVersion.csv,Read,Read2,KEYS,ROD,Study1,U,100,91,Study,User,-,,Study/JOL,"Study Phase2",740,,,-1,-1,,,,1
5e2631760e122288e0404af7,xxsv3cm274,"Mediated Recall_Prolific",1,136,2023-02-05T18:23:34+00:00,1.1864998340607,3,versionB_stim.csv,ReadVersion.csv,Read,Read2,SCALP,HEAD,Study1,F,78,100,Study,User,-,,Study/JOL,"Study Phase2",872,,,-1,-1,,,,1
5e2631760e122288e0404af7,xxsv3cm274,"Mediated Recall_Prolific",1,137,2023-02-05T18:23:35+00:00,1.063511133194,3,versionB_stim.csv,ReadVersion.csv,Read,Read2,DAY,DARK,Study1,M,73,99,Study,User,-,,Study/JOL,"Study Phase2",775,,,-1,-1,,,,1
5e2631760e122288e0404af7,xxsv3cm274,"Mediated Recall_Prolific",1,138,2023-02-05T18:23:37+00:00,1.6585409641266,3,versionB_stim.csv,ReadVersion.csv,Read,Read2,LITTER,TRASH,Study1,F,76,94,Study,User,-,,Study/JOL,"Study Phase2",1333,,,-1,-1,,,,1
5e2631760e122288e0404af7,xxsv3cm274,"Mediated Recall_Prolific",1,139,2023-02-05T18:23:38+00:00,0.92944288253784,3,versionB_stim.csv,ReadVersion.csv,Read,Read2,SHELL,SHAKE,Study1,U,98,76,Study,User,-,,Study/JOL,"Study Phase2",607,,,-1,-1,,,,1
5e2631760e122288e0404af7,xxsv3cm274,"Mediated Recall_Prolific",1,140,2023-02-05T18:23:39+00:00,1.3802700042725,3,versionB_stim.csv,ReadVersion.csv,Read,Read2,TREE,SYRUP,Study1,M,66,66,Study,User,-,,Study/JOL,"Study Phase2",1082,,,-1,-1,,,,1
5e2631760e122288e0404af7,xxsv3cm274,"Mediated Recall_Prolific",1,141,2023-02-05T18:23:41+00:00,1.4507761001587,3,versionB_stim.csv,ReadVersion.csv,Read,Read2,CEILING,CARPET,Study1,M,70,103,Study,User,-,,Study/JOL,"Study Phase2",1138,,,-1,-1,,,,1
5e2631760e122288e0404af7,xxsv3cm274,"Mediated Recall_Prolific",1,142,2023-02-05T18:23:42+00:00,1.037535905838,3,versionB_stim.csv,ReadVersion.csv,Read,Read2,MULE,DONKEY,Study1,F,85,104,Study,User,-,,Study/JOL,"Study Phase2",710,,,-1,-1,,,,1
5e2631760e122288e0404af7,xxsv3cm274,"Mediated Recall_Prolific",1,143,2023-02-05T18:23:43+00:00,1.0578792095184,3,versionB_stim.csv,ReadVersion.csv,Read,Read2,HYGIENE,CLEAN,Study1,F,83,102,Study,User,-,,Study/JOL,"Study Phase2",744,,,-1,-1,,,,1
5e2631760e122288e0404af7,xxsv3cm274,"Mediated Recall_Prolific",1,144,2023-02-05T18:23:44+00:00,0.96978998184204,3,versionB_stim.csv,ReadVersion.csv,Read,Read2,ROUGH,SILK,Study1,M,65,75,Study,User,-,,Study/JOL,"Study Phase2",645,,,-1,-1,,,,1
5e2631760e122288e0404af7,xxsv3cm274,"Mediated Recall_Prolific",1,145,2023-02-05T18:23:45+00:00,1.0077760219574,3,versionB_stim.csv,ReadVersion.csv,Read,Read2,HARD,COTTON,Study1,M,75,69,Study,User,-,,Study/JOL,"Study Phase2",694,,,-1,-1,,,,1
5e2631760e122288e0404af7,xxsv3cm274,"Mediated Recall_Prolific",1,146,2023-02-05T18:23:48+00:00,3.2519099712372,3,versionB_stim.csv,ReadVersion.csv,Read,Read2,MULE,DONKEY,Study1,F,79,90,Study,User,-,,Study/JOL,"Study Phase2",2937,,,-1,-1,,,,1
5e2631760e122288e0404af7,xxsv3cm274,"Mediated Recall_Prolific",1,147,2023-02-05T18:23:49+00:00,1.3445279598236,3,versionB_stim.csv,ReadVersion.csv,Read,Read2,LISTEN,FICTION,Study1,U,99,63,Study,User,-,,Study/JOL,"Study Phase2",875,,,-1,-1,,,,1
5e2631760e122288e0404af7,xxsv3cm274,"Mediated Recall_Prolific",1,148,2023-02-05T18:23:51+00:00,1.2097270488739,3,versionB_stim.csv,ReadVersion.csv,Read,Read2,CRY,BOTTLE,Study1,M,71,98,Study,User,-,,Study/JOL,"Study Phase2",902,,,-1,-1,,,,1
5e2631760e122288e0404af7,xxsv3cm274,"Mediated Recall_Prolific",1,149,2023-02-05T18:23:53+00:00,2.2476999759674,3,versionB_stim.csv,ReadVersion.csv,Read,Read2,WORD,SENTENCE,Study1,F,82,85,Study,User,-,,Study/JOL,"Study Phase2",1943,,,-1,-1,,,,1
5e2631760e122288e0404af7,xxsv3cm274,"Mediated Recall_Prolific",1,150,2023-02-05T18:23:54+00:00,0.72450399398804,3,versionB_stim.csv,ReadVersion.csv,Read,Read2,SIGN,TICK,Study1,U,102,82,Study,User,-,,Study/JOL,"Study Phase2",398,,,-1,-1,,,,1
5e2631760e122288e0404af7,xxsv3cm274,"Mediated Recall_Prolific",1,151,2023-02-05T18:23:56+00:00,2.1902940273285,3,versionB_stim.csv,ReadVersion.csv,Read,Read2,CIRCLE,DANCE,Study1,M,68,88,Study,User,-,,Study/JOL,"Study Phase2",1893,,,-1,-1,,,,1
5e2631760e122288e0404af7,xxsv3cm274,"Mediated Recall_Prolific",1,152,2023-02-05T18:23:57+00:00,0.74132895469666,3,versionB_stim.csv,ReadVersion.csv,Read,Read2,TUNA,FISH,Study1,F,90,68,Study,User,-,,Study/JOL,"Study Phase2",428,,,-1,-1,,,,1
5e2631760e122288e0404af7,xxsv3cm274,"Mediated Recall_Prolific",1,153,2023-02-05T18:23:57+00:00,0.90586495399475,3,versionB_stim.csv,ReadVersion.csv,Read,Read2,CAKE,HAND,Study1,U,104,101,Study,User,-,,Study/JOL,"Study Phase2",593,,,-1,-1,,,,1
5e2631760e122288e0404af7,xxsv3cm274,"Mediated Recall_Prolific",1,154,2023-02-05T18:23:59+00:00,1.8960499763489,3,versionB_stim.csv,ReadVersion.csv,Read,Read2,WAR,QUIET,Study1,M,63,95,Study,User,-,,Study/JOL,"Study Phase2",1575,,,-1,-1,,,,1
5e2631760e122288e0404af7,xxsv3cm274,"Mediated Recall_Prolific",1,155,2023-02-05T18:24:00+00:00,0.92272806167603,3,versionB_stim.csv,ReadVersion.csv,Read,Read2,VEHICLE,CHARM,Study1,U,95,65,Study,User,-,,Study/JOL,"Study Phase2",606,,,-1,-1,,,,1
5e2631760e122288e0404af7,xxsv3cm274,"Mediated Recall_Prolific",1,156,2023-02-05T18:24:01+00:00,0.78738594055176,3,versionB_stim.csv,ReadVersion.csv,Read,Read2,ROOT,PLANT,Study1,F,80,105,Study,User,-,,Study/JOL,"Study Phase2",473,,,-1,-1,,,,1
5e2631760e122288e0404af7,xxsv3cm274,"Mediated Recall_Prolific",1,157,2023-02-05T18:24:02+00:00,0.98605704307556,3,versionB_stim.csv,ReadVersion.csv,Read,Read2,HORSE,WHEEL,Study1,M,69,87,Study,User,-,,Study/JOL,"Study Phase2",609,,,-1,-1,,,,1
5e2631760e122288e0404af7,xxsv3cm274,"Mediated Recall_Prolific",1,158,2023-02-05T18:24:03+00:00,0.93441987037659,3,versionB_stim.csv,ReadVersion.csv,Read,Read2,CARROT,POTATO,BUFFER4,Buffer,51,52,Study,User,-,,Study/JOL,BUFFER2,620,,,-1,-1,,,,1
5e2631760e122288e0404af7,xxsv3cm274,"Mediated Recall_Prolific",1,159,2023-02-05T18:24:04+00:00,0.98978018760681,3,versionB_stim.csv,ReadVersion.csv,Read,Read2,SPACE,JAM,BUFFER1,Buffer,60,60,Study,User,-,,Study/JOL,BUFFER2,654,,,-1,-1,,,,1
5e2631760e122288e0404af7,xxsv3cm274,"Mediated Recall_Prolific",1,160,2023-02-05T18:24:06+00:00,1.894345998764,3,versionB_stim.csv,ReadVersion.csv,Read,Read2,GEESE,GOOSE,BUFFER2,Buffer,106,111,Study,User,-,,Study/JOL,BUFFER2,1567,,,-1,-1,,,,1
5e2631760e122288e0404af7,xxsv3cm274,"Mediated Recall_Prolific",1,161,2023-02-05T18:24:07+00:00,0.74463391304016,3,versionB_stim.csv,ReadVersion.csv,Read,Read2,THING,STUFF,BUFFER2,Buffer,110,110,Study,User,-,,Study/JOL,BUFFER2,412,,,-1,-1,,,,1
5e2631760e122288e0404af7,xxsv3cm274,"Mediated Recall_Prolific",1,162,2023-02-05T18:24:08+00:00,1.4011840820312,3,versionB_stim.csv,ReadVersion.csv,Read,Read2,MALT,CHOCOLATE,BUFFER2,Buffer,108,109,Study,User,-,,Study/JOL,BUFFER2,1070,,,-1,-1,,,,1
5e2631760e122288e0404af7,xxsv3cm274,"Mediated Recall_Prolific",1,163,2023-02-05T18:24:10+00:00,1.5797929763794,3,versionB_stim.csv,ReadVersion.csv,Read,Read2,,,,,,0,Instruct,User,-,"You have completed this section. Please press Enter.",Filler_Instruction,Instruct2,1252,,,-1,-1,,,,1
5e2631760e122288e0404af7,xxsv3cm274,"Mediated Recall_Prolific",1,164,2023-02-05T18:26:10+00:00,120.4959590435,3,versionB_stim.csv,ReadVersion.csv,Read,Read2,,,,,,0,FreeRecall,120,120,"Please list the 50 US states in alphabetical order. The task will automatically advance to the next screen after two minutes.",,Filler1,120009,"Alabama Arkansas California Colorado Connecticut Georgia Kansas Louisiana Montana Nebraska North Carolina North Dakota Pennsylvania Rhode Island Tennessee Texas",0,2267,116808,0,0,,1
5e2631760e122288e0404af7,xxsv3cm274,"Mediated Recall_Prolific",1,165,2023-02-05T18:26:21+00:00,11.069943904877,3,versionB_stim.csv,ReadVersion.csv,Read,Read2,,,,,,0,Instruct,-,10,"You will now be presented with the first word from each of the previously studied item pairs. Please type the missing word. If you do not know the word, you may guess or press Enter to skip forward to the next pair.",,Instruct3,10596,,,-1,-1,,,,1
5e2631760e122288e0404af7,xxsv3cm274,"Mediated Recall_Prolific",1,166,2023-02-05T18:26:25+00:00,4.2781870365143,3,versionB_stim.csv,ReadVersion.csv,Read,Read2,DAY,DARK,Study1,M,73,99,Test,User,-,,Recall,Recall2,3941,LIGHT,0,3178,3756,0,0,,1
5e2631760e122288e0404af7,xxsv3cm274,"Mediated Recall_Prolific",1,167,2023-02-05T18:26:30+00:00,4.1861178874969,3,versionB_stim.csv,ReadVersion.csv,Read,Read2,CRACKLE,ELECTION,Study1,U,94,64,Test,User,-,,Recall,Recall2,3864,ELECTRIC,75,2545,3655,0,1,,1
5e2631760e122288e0404af7,xxsv3cm274,"Mediated Recall_Prolific",1,168,2023-02-05T18:26:32+00:00,2.8982350826263,3,versionB_stim.csv,ReadVersion.csv,Read,Read2,SWAN,BIRD,Study1,F,81,97,Test,User,-,,Recall,Recall2,2572,,0,1466,1466,0,0,,1
5e2631760e122288e0404af7,xxsv3cm274,"Mediated Recall_Prolific",1,169,2023-02-05T18:26:35+00:00,2.6039650440216,3,versionB_stim.csv,ReadVersion.csv,Read,Read2,BEACH,BOX,Study1,M,62,62,Test,User,-,,Recall,Recall2,2289,SAND,0,1749,2038,0,0,,1
5e2631760e122288e0404af7,xxsv3cm274,"Mediated Recall_Prolific",1,170,2023-02-05T18:26:40+00:00,4.4314379692078,3,versionB_stim.csv,ReadVersion.csv,Read,Read2,TOOTH,HAIR,Study1,M,74,70,Test,User,-,,Recall,Recall2,4120,,0,-1,-1,0,0,,1
5e2631760e122288e0404af7,xxsv3cm274,"Mediated Recall_Prolific",1,171,2023-02-05T18:26:44+00:00,4.1642220020294,3,versionB_stim.csv,ReadVersion.csv,Read,Read2,TREE,SYRUP,Study1,M,66,66,Test,User,-,,Recall,Recall2,3841,GREEN,20,2515,3383,0,0,,1
5e2631760e122288e0404af7,xxsv3cm274,"Mediated Recall_Prolific",1,172,2023-02-05T18:26:48+00:00,4.1600229740143,3,versionB_stim.csv,ReadVersion.csv,Read,Read2,ROOT,PLANT,Study1,F,80,105,Test,User,-,,Recall,Recall2,3765,ROT,25,3236,3540,0,0,,1
5e2631760e122288e0404af7,xxsv3cm274,"Mediated Recall_Prolific",1,173,2023-02-05T18:26:51+00:00,2.8094909191132,3,versionB_stim.csv,ReadVersion.csv,Read,Read2,MIRROR,MAROON,Study1,U,91,74,Test,User,-,,Recall,Recall2,2488,,0,-1,-1,0,0,,1
5e2631760e122288e0404af7,xxsv3cm274,"Mediated Recall_Prolific",1,174,2023-02-05T18:26:55+00:00,3.8724281787872,3,versionB_stim.csv,ReadVersion.csv,Read,Read2,KEYS,ROD,Study1,U,100,91,Test,User,-,,Recall,Recall2,3565,,0,-1,-1,0,0,,1
5e2631760e122288e0404af7,xxsv3cm274,"Mediated Recall_Prolific",1,175,2023-02-05T18:26:56+00:00,1.5338809490204,3,versionB_stim.csv,ReadVersion.csv,Read,Read2,SCALP,HEAD,Study1,F,78,100,Test,User,-,,Recall,Recall2,1217,,0,-1,-1,0,0,,1
5e2631760e122288e0404af7,xxsv3cm274,"Mediated Recall_Prolific",1,176,2023-02-05T18:27:02+00:00,5.4456880092621,3,versionB_stim.csv,ReadVersion.csv,Read,Read2,MEAT,KEYS,Study1,U,96,77,Test,User,-,,Recall,Recall2,5111,,0,-1,-1,0,0,,1
5e2631760e122288e0404af7,xxsv3cm274,"Mediated Recall_Prolific",1,177,2023-02-05T18:27:06+00:00,4.0754959583282,3,versionB_stim.csv,ReadVersion.csv,Read,Read2,SIP,DRINK,Study1,F,87,80,Test,User,-,,Recall,Recall2,3757,DRINK,100,2420,3220,1,1,,1
5e2631760e122288e0404af7,xxsv3cm274,"Mediated Recall_Prolific",1,178,2023-02-05T18:27:08+00:00,2.3635160923004,3,versionB_stim.csv,ReadVersion.csv,Read,Read2,CEILING,CARPET,Study1,M,70,103,Test,User,-,,Recall,Recall2,2040,FAN,22.222222222222,1426,1770,0,0,,1
5e2631760e122288e0404af7,xxsv3cm274,"Mediated Recall_Prolific",1,179,2023-02-05T18:27:12+00:00,4.2459909915924,3,versionB_stim.csv,ReadVersion.csv,Read,Read2,HYGIENE,CLEAN,Study1,F,83,102,Test,User,-,,Recall,Recall2,3927,WASH,22.222222222222,2954,3396,0,0,,1
5e2631760e122288e0404af7,xxsv3cm274,"Mediated Recall_Prolific",1,180,2023-02-05T18:27:15+00:00,2.9763720035553,3,versionB_stim.csv,ReadVersion.csv,Read,Read2,SIGN,TICK,Study1,U,102,82,Test,User,-,,Recall,Recall2,2662,,0,-1,-1,0,0,,1
5e2631760e122288e0404af7,xxsv3cm274,"Mediated Recall_Prolific",1,181,2023-02-05T18:27:19+00:00,3.7661249637604,3,versionB_stim.csv,ReadVersion.csv,Read,Read2,WAGE,MONEY,Study1,F,77,86,Test,User,-,,Recall,Recall2,3448,MONEY,100,1301,2217,1,1,,1
5e2631760e122288e0404af7,xxsv3cm274,"Mediated Recall_Prolific",1,182,2023-02-05T18:27:22+00:00,3.5020699501038,3,versionB_stim.csv,ReadVersion.csv,Read,Read2,VEHICLE,CHARM,Study1,U,95,65,Test,User,-,,Recall,Recall2,3188,,0,-1,-1,0,0,,1
5e2631760e122288e0404af7,xxsv3cm274,"Mediated Recall_Prolific",1,183,2023-02-05T18:27:25+00:00,2.8119740486145,3,versionB_stim.csv,ReadVersion.csv,Read,Read2,MAZE,PHONE,Study1,U,97,79,Test,User,-,,Recall,Recall2,2497,,0,-1,-1,0,0,,1
5e2631760e122288e0404af7,xxsv3cm274,"Mediated Recall_Prolific",1,184,2023-02-05T18:27:27+00:00,2.1914689540863,3,versionB_stim.csv,ReadVersion.csv,Read,Read2,CREDIT,CARD,Study1,F,88,93,Test,User,-,,Recall,Recall2,1873,CARD,100,1096,1607,1,1,,1
5e2631760e122288e0404af7,xxsv3cm274,"Mediated Recall_Prolific",1,185,2023-02-05T18:27:31+00:00,3.3503201007843,3,versionB_stim.csv,ReadVersion.csv,Read,Read2,SHELL,SHAKE,Study1,U,98,76,Test,User,-,,Recall,Recall2,3026,BEACH,20,2000,2610,0,0,,1
5e2631760e122288e0404af7,xxsv3cm274,"Mediated Recall_Prolific",1,186,2023-02-05T18:27:35+00:00,4.0658528804779,3,versionB_stim.csv,ReadVersion.csv,Read,Read2,LION,STRIPES,Study1,M,61,72,Test,User,-,,Recall,Recall2,3736,STRIPES,100,1757,3507,1,1,,1
5e2631760e122288e0404af7,xxsv3cm274,"Mediated Recall_Prolific",1,187,2023-02-05T18:27:49+00:00,14.05495595932,3,versionB_stim.csv,ReadVersion.csv,Read,Read2,TEMPERATURE,MORNING,Study1,U,103,96,Test,User,-,,Recall,Recall2,13574,HIGH,36.363636363636,11668,13176,0,0,,1
5e2631760e122288e0404af7,xxsv3cm274,"Mediated Recall_Prolific",1,188,2023-02-05T18:27:53+00:00,3.7242181301117,3,versionB_stim.csv,ReadVersion.csv,Read,Read2,CIRCLE,DANCE,Study1,M,68,88,Test,User,-,,Recall,Recall2,3398,SHAPE,40,2500,3083,0,0,,1
5e2631760e122288e0404af7,xxsv3cm274,"Mediated Recall_Prolific",1,189,2023-02-05T18:27:54+00:00,1.3958768844604,3,versionB_stim.csv,ReadVersion.csv,Read,Read2,GIVE,STEAK,Study1,U,93,89,Test,User,-,,Recall,Recall2,1066,,0,-1,-1,0,0,,1
5e2631760e122288e0404af7,xxsv3cm274,"Mediated Recall_Prolific",1,190,2023-02-05T18:27:57+00:00,2.8877091407776,3,versionB_stim.csv,ReadVersion.csv,Read,Read2,BAT,BOUNCE,Study1,M,67,67,Test,User,-,,Recall,Recall2,2415,,0,-1,-1,0,0,,1
5e2631760e122288e0404af7,xxsv3cm274,"Mediated Recall_Prolific",1,191,2023-02-05T18:28:02+00:00,4.9298279285431,3,versionB_stim.csv,ReadVersion.csv,Read,Read2,CAKE,HAND,Study1,U,104,101,Test,User,-,,Recall,Recall2,4595,,0,-1,-1,0,0,,1
5e2631760e122288e0404af7,xxsv3cm274,"Mediated Recall_Prolific",1,192,2023-02-05T18:28:04+00:00,2.4655389785767,3,versionB_stim.csv,ReadVersion.csv,Read,Read2,AFFECTION,LOVE,Study1,F,86,78,Test,User,-,,Recall,Recall2,2131,LOVE,100,1326,1800,1,1,,1
5e2631760e122288e0404af7,xxsv3cm274,"Mediated Recall_Prolific",1,193,2023-02-05T18:28:08+00:00,3.667622089386,3,versionB_stim.csv,ReadVersion.csv,Read,Read2,TUNA,FISH,Study1,F,90,68,Test,User,-,,Recall,Recall2,3349,FISH,100,1241,2878,1,1,,1
5e2631760e122288e0404af7,xxsv3cm274,"Mediated Recall_Prolific",1,194,2023-02-05T18:28:09+00:00,1.436399936676,3,versionB_stim.csv,ReadVersion.csv,Read,Read2,LITTER,TRASH,Study1,F,76,94,Test,User,-,,Recall,Recall2,1117,,0,-1,-1,0,0,,1
5e2631760e122288e0404af7,xxsv3cm274,"Mediated Recall_Prolific",1,195,2023-02-05T18:28:14+00:00,4.7520270347595,3,versionB_stim.csv,ReadVersion.csv,Read,Read2,BIRTHDAY,PIE,Study1,M,64,92,Test,User,-,,Recall,Recall2,4436,CAKE,28.571428571429,1843,3718,0,0,,1
5e2631760e122288e0404af7,xxsv3cm274,"Mediated Recall_Prolific",1,196,2023-02-05T18:28:17+00:00,3.182550907135,3,versionB_stim.csv,ReadVersion.csv,Read,Read2,STRETCH,CLOTH,Study1,U,92,71,Test,User,-,,Recall,Recall2,2850,,0,-1,-1,0,0,,1
5e2631760e122288e0404af7,xxsv3cm274,"Mediated Recall_Prolific",1,197,2023-02-05T18:28:21+00:00,3.5190150737762,3,versionB_stim.csv,ReadVersion.csv,Read,Read2,HARD,COTTON,Study1,M,75,69,Test,User,-,,Recall,Recall2,3176,SOFT,40,2304,2906,0,0,,1
5e2631760e122288e0404af7,xxsv3cm274,"Mediated Recall_Prolific",1,198,2023-02-05T18:28:23+00:00,2.5712368488312,3,versionB_stim.csv,ReadVersion.csv,Read,Read2,WEDDING,FINGER,Study1,M,72,84,Test,User,-,,Recall,Recall2,2249,CAKE,20,1612,1986,0,0,,1
5e2631760e122288e0404af7,xxsv3cm274,"Mediated Recall_Prolific",1,199,2023-02-05T18:28:26+00:00,2.724004983902,3,versionB_stim.csv,ReadVersion.csv,Read,Read2,ROUGH,SILK,Study1,M,65,75,Test,User,-,,Recall,Recall2,2396,,0,-1,-1,0,0,,1
5e2631760e122288e0404af7,xxsv3cm274,"Mediated Recall_Prolific",1,200,2023-02-05T18:28:28+00:00,1.5039191246033,3,versionB_stim.csv,ReadVersion.csv,Read,Read2,CRY,BOTTLE,Study1,M,71,98,Test,User,-,,Recall,Recall2,1177,,0,-1,-1,0,0,,1
5e2631760e122288e0404af7,xxsv3cm274,"Mediated Recall_Prolific",1,201,2023-02-05T18:28:30+00:00,2.7539639472961,3,versionB_stim.csv,ReadVersion.csv,Read,Read2,WORD,SENTENCE,Study1,F,82,85,Test,User,-,,Recall,Recall2,2413,,0,-1,-1,0,0,,1
5e2631760e122288e0404af7,xxsv3cm274,"Mediated Recall_Prolific",1,202,2023-02-05T18:28:33+00:00,2.5680630207062,3,versionB_stim.csv,ReadVersion.csv,Read,Read2,NAP,SLEEP,Study1,F,84,73,Test,User,-,,Recall,Recall2,2234,SLEEP,100,1454,1945,1,1,,1
5e2631760e122288e0404af7,xxsv3cm274,"Mediated Recall_Prolific",1,203,2023-02-05T18:28:35+00:00,1.9272439479828,3,versionB_stim.csv,ReadVersion.csv,Read,Read2,FUZZY,BANG,Study1,U,105,83,Test,User,-,,Recall,Recall2,1513,,0,-1,-1,0,0,,1
5e2631760e122288e0404af7,xxsv3cm274,"Mediated Recall_Prolific",1,204,2023-02-05T18:28:37+00:00,1.9830219745636,3,versionB_stim.csv,ReadVersion.csv,Read,Read2,HORSE,WHEEL,Study1,M,69,87,Test,User,-,,Recall,Recall2,1647,,0,-1,-1,0,0,,1
5e2631760e122288e0404af7,xxsv3cm274,"Mediated Recall_Prolific",1,205,2023-02-05T18:28:41+00:00,4.2582311630249,3,versionB_stim.csv,ReadVersion.csv,Read,Read2,MULE,DONKEY,Study1,F,85,104,Test,User,-,,Recall,Recall2,3924,DONKEY,100,2791,3727,1,1,,1
5e2631760e122288e0404af7,xxsv3cm274,"Mediated Recall_Prolific",1,206,2023-02-05T18:28:44+00:00,2.7334740161896,3,versionB_stim.csv,ReadVersion.csv,Read,Read2,ORCHID,FLOWER,Study1,F,89,81,Test,User,-,,Recall,Recall2,2422,FLOWER,100,1341,2046,1,1,,1
5e2631760e122288e0404af7,xxsv3cm274,"Mediated Recall_Prolific",1,207,2023-02-05T18:28:47+00:00,2.6583209037781,3,versionB_stim.csv,ReadVersion.csv,Read,Read2,SOON,BELT,Study1,U,101,106,Test,User,-,,Recall,Recall2,2343,LATER,44.444444444444,1476,2077,0,0,,1
5e2631760e122288e0404af7,xxsv3cm274,"Mediated Recall_Prolific",1,208,2023-02-05T18:28:50+00:00,3.1318030357361,3,versionB_stim.csv,ReadVersion.csv,Read,Read2,LISTEN,FICTION,Study1,U,99,63,Test,User,-,,Recall,Recall2,2818,HEAR,0,2179,2587,0,0,,1
5e2631760e122288e0404af7,xxsv3cm274,"Mediated Recall_Prolific",1,209,2023-02-05T18:28:51+00:00,1.6482989788055,3,versionB_stim.csv,ReadVersion.csv,Read,Read2,WAR,QUIET,Study1,M,63,95,Test,User,-,,Recall,Recall2,1319,,0,-1,-1,0,0,,1
5e2631760e122288e0404af7,xxsv3cm274,"Mediated Recall_Prolific",1,210,2023-02-05T18:28:55+00:00,3.2176220417023,3,versionB_stim.csv,ReadVersion.csv,Read,Read2,MULE,DONKEY,Study1,F,79,90,Test,User,-,,Recall,Recall2,2892,DONKEY,100,1664,2504,1,1,,1
5e2631760e122288e0404af7,xxsv3cm274,"Mediated Recall_Prolific",1,211,2023-02-05T18:28:56+00:00,1.7352068424225,3,versionB_stim.csv,ReadVersion.csv,Read,Read2,,,,,,0,Instruct,User,-,"You have completed this section. Please press Enter.",,Instruct7,1411,,,-1,-1,,,,1
5e2631760e122288e0404af7,xxsv3cm274,"Mediated Recall_Prolific",1,212,2023-02-05T18:28:59+00:00,2.6152291297913,3,versionB_stim.csv,ReadVersion.csv,Read,Read2,,,,,,0,Instruct,User,-,"The following screen will ask you a few questions abour your experience today. You must complete these questions to receive credit.",,Instruct8,2300,,,-1,-1,,,,1
